slides.thisRepN,slides.thisTrialN,slides.thisN,slides.thisIndex,slides.ran,instruct_slide,audio_path,participant,session,run_id,date,study,task_schedule,instruct_schedule,expName,psychopyVersion,OS,frameRate,index,task,run,resp.keys,points,resp.rt,example_trials.thisRepN,example_trials.thisTrialN,example_trials.thisN,example_trials.thisIndex,example_trials.ran,game_number,game_type,trial_num,mean_type,left_reward,right_reward,force_type,force_pos,trials.thisRepN,trials.thisTrialN,trials.thisN,trials.thisIndex,trials.ran,left_mean,right_mean
0,0,0,0,1,/js/tasks/horizon/media/horizonInstructions/johns_hopkins_title.jpg,/js/tasks/horizon/media/instruction_audio/slide1_23m4a.m4a,10,baseline,Johns_Hopkins_R1.json,2022-07-22_10h19.49.142,johns_hopkins,/js/tasks/horizon/game_type_v3.xls,/js/tasks/horizon/media/johns_hopkins_instruct_slide_R1.csv,Horizon Task,3.2.5,MacIntel,60,0,horizon,Johns_Hopkins_R1.json
0,1,1,1,1,/js/tasks/horizon/media/horizonInstructions/Slide2.jpeg,/js/tasks/horizon/media/instruction_audio/slide2.m4a,10,baseline,Johns_Hopkins_R1.json,2022-07-22_10h19.49.142,johns_hopkins,/js/tasks/horizon/game_type_v3.xls,/js/tasks/horizon/media/johns_hopkins_instruct_slide_R1.csv,Horizon Task,3.2.5,MacIntel,60,0,horizon,Johns_Hopkins_R1.json
0,2,2,2,1,/js/tasks/horizon/media/horizonInstructions/Slide3.jpeg,/js/tasks/horizon/media/instruction_audio/slide3.m4a,10,baseline,Johns_Hopkins_R1.json,2022-07-22_10h19.49.142,johns_hopkins,/js/tasks/horizon/game_type_v3.xls,/js/tasks/horizon/media/johns_hopkins_instruct_slide_R1.csv,Horizon Task,3.2.5,MacIntel,60,0,horizon,Johns_Hopkins_R1.json
0,3,3,3,1,/js/tasks/horizon/media/horizonInstructions/Slide4.jpeg,/js/tasks/horizon/media/instruction_audio/slide4.m4a,10,baseline,Johns_Hopkins_R1.json,2022-07-22_10h19.49.142,johns_hopkins,/js/tasks/horizon/game_type_v3.xls,/js/tasks/horizon/media/johns_hopkins_instruct_slide_R1.csv,Horizon Task,3.2.5,MacIntel,60,0,horizon,Johns_Hopkins_R1.json
0,4,4,4,1,/js/tasks/horizon/media/horizonInstructions/Slide5.jpeg,/js/tasks/horizon/media/instruction_audio/slide5.m4a,10,baseline,Johns_Hopkins_R1.json,2022-07-22_10h19.49.142,johns_hopkins,/js/tasks/horizon/game_type_v3.xls,/js/tasks/horizon/media/johns_hopkins_instruct_slide_R1.csv,Horizon Task,3.2.5,MacIntel,60,0,horizon,Johns_Hopkins_R1.json
0,5,5,5,1,/js/tasks/horizon/media/horizonInstructions/Slide6.jpeg,/js/tasks/horizon/media/instruction_audio/slide6.m4a,10,baseline,Johns_Hopkins_R1.json,2022-07-22_10h19.49.142,johns_hopkins,/js/tasks/horizon/game_type_v3.xls,/js/tasks/horizon/media/johns_hopkins_instruct_slide_R1.csv,Horizon Task,3.2.5,MacIntel,60,0,horizon,Johns_Hopkins_R1.json
0,6,6,6,1,/js/tasks/horizon/media/horizonInstructions/Slide7.jpeg,/js/tasks/horizon/media/instruction_audio/slide7.m4a,10,baseline,Johns_Hopkins_R1.json,2022-07-22_10h19.49.142,johns_hopkins,/js/tasks/horizon/game_type_v3.xls,/js/tasks/horizon/media/johns_hopkins_instruct_slide_R1.csv,Horizon Task,3.2.5,MacIntel,60,0,horizon,Johns_Hopkins_R1.json
0,7,7,7,1,/js/tasks/horizon/media/horizonInstructions/Slide8.jpeg,/js/tasks/horizon/media/instruction_audio/slide8.m4a,10,baseline,Johns_Hopkins_R1.json,2022-07-22_10h19.49.142,johns_hopkins,/js/tasks/horizon/game_type_v3.xls,/js/tasks/horizon/media/johns_hopkins_instruct_slide_R1.csv,Horizon Task,3.2.5,MacIntel,60,0,horizon,Johns_Hopkins_R1.json
0,8,8,8,1,/js/tasks/horizon/media/horizonInstructions/Slide9.jpeg,/js/tasks/horizon/media/instruction_audio/slide9.m4a,10,baseline,Johns_Hopkins_R1.json,2022-07-22_10h19.49.142,johns_hopkins,/js/tasks/horizon/game_type_v3.xls,/js/tasks/horizon/media/johns_hopkins_instruct_slide_R1.csv,Horizon Task,3.2.5,MacIntel,60,0,horizon,Johns_Hopkins_R1.json
0,9,9,9,1,/js/tasks/horizon/media/horizonInstructions/Slide10.jpeg,/js/tasks/horizon/media/instruction_audio/slide10.m4a,10,baseline,Johns_Hopkins_R1.json,2022-07-22_10h19.49.142,johns_hopkins,/js/tasks/horizon/game_type_v3.xls,/js/tasks/horizon/media/johns_hopkins_instruct_slide_R1.csv,Horizon Task,3.2.5,MacIntel,60,0,horizon,Johns_Hopkins_R1.json
0,10,10,10,1,/js/tasks/horizon/media/horizonInstructions/Slide11.jpeg,/js/tasks/horizon/media/instruction_audio/slide11.m4a,10,baseline,Johns_Hopkins_R1.json,2022-07-22_10h19.49.142,johns_hopkins,/js/tasks/horizon/game_type_v3.xls,/js/tasks/horizon/media/johns_hopkins_instruct_slide_R1.csv,Horizon Task,3.2.5,MacIntel,60,0,horizon,Johns_Hopkins_R1.json
0,11,11,11,1,/js/tasks/horizon/media/horizonInstructions/Slide12.jpeg,/js/tasks/horizon/media/instruction_audio/slide12.m4a,10,baseline,Johns_Hopkins_R1.json,2022-07-22_10h19.49.142,johns_hopkins,/js/tasks/horizon/game_type_v3.xls,/js/tasks/horizon/media/johns_hopkins_instruct_slide_R1.csv,Horizon Task,3.2.5,MacIntel,60,0,horizon,Johns_Hopkins_R1.json
0,12,12,12,1,/js/tasks/horizon/media/horizonInstructions/Slide13.jpeg,/js/tasks/horizon/media/instruction_audio/slide13.m4a,10,baseline,Johns_Hopkins_R1.json,2022-07-22_10h19.49.142,johns_hopkins,/js/tasks/horizon/game_type_v3.xls,/js/tasks/horizon/media/johns_hopkins_instruct_slide_R1.csv,Horizon Task,3.2.5,MacIntel,60,0,horizon,Johns_Hopkins_R1.json
0,13,13,13,1,/js/tasks/horizon/media/horizonInstructions/Slide14.jpeg,/js/tasks/horizon/media/instruction_audio/slide14.m4a,10,baseline,Johns_Hopkins_R1.json,2022-07-22_10h19.49.142,johns_hopkins,/js/tasks/horizon/game_type_v3.xls,/js/tasks/horizon/media/johns_hopkins_instruct_slide_R1.csv,Horizon Task,3.2.5,MacIntel,60,0,horizon,Johns_Hopkins_R1.json
0,14,14,14,1,/js/tasks/horizon/media/horizonInstructions/Slide15.jpeg,/js/tasks/horizon/media/instruction_audio/slide15.m4a,10,baseline,Johns_Hopkins_R1.json,2022-07-22_10h19.49.142,johns_hopkins,/js/tasks/horizon/game_type_v3.xls,/js/tasks/horizon/media/johns_hopkins_instruct_slide_R1.csv,Horizon Task,3.2.5,MacIntel,60,0,horizon,Johns_Hopkins_R1.json
0,15,15,15,1,/js/tasks/horizon/media/horizonInstructions/Slide16.jpeg,/js/tasks/horizon/media/instruction_audio/slide16.m4a,10,baseline,Johns_Hopkins_R1.json,2022-07-22_10h19.49.142,johns_hopkins,/js/tasks/horizon/game_type_v3.xls,/js/tasks/horizon/media/johns_hopkins_instruct_slide_R1.csv,Horizon Task,3.2.5,MacIntel,60,0,horizon,Johns_Hopkins_R1.json
0,16,16,16,1,/js/tasks/horizon/media/horizonInstructions/Slide17.jpeg,/js/tasks/horizon/media/instruction_audio/slide17.m4a,10,baseline,Johns_Hopkins_R1.json,2022-07-22_10h19.49.142,johns_hopkins,/js/tasks/horizon/game_type_v3.xls,/js/tasks/horizon/media/johns_hopkins_instruct_slide_R1.csv,Horizon Task,3.2.5,MacIntel,60,0,horizon,Johns_Hopkins_R1.json
0,17,17,17,1,/js/tasks/horizon/media/horizonInstructions/Slide18.jpeg,/js/tasks/horizon/media/instruction_audio/slide18.m4a,10,baseline,Johns_Hopkins_R1.json,2022-07-22_10h19.49.142,johns_hopkins,/js/tasks/horizon/game_type_v3.xls,/js/tasks/horizon/media/johns_hopkins_instruct_slide_R1.csv,Horizon Task,3.2.5,MacIntel,60,0,horizon,Johns_Hopkins_R1.json
0,18,18,18,1,/js/tasks/horizon/media/horizonInstructions/Slide19.jpeg,/js/tasks/horizon/media/instruction_audio/slide19.m4a,10,baseline,Johns_Hopkins_R1.json,2022-07-22_10h19.49.142,johns_hopkins,/js/tasks/horizon/game_type_v3.xls,/js/tasks/horizon/media/johns_hopkins_instruct_slide_R1.csv,Horizon Task,3.2.5,MacIntel,60,0,horizon,Johns_Hopkins_R1.json
0,19,19,19,1,/js/tasks/horizon/media/horizonInstructions/Slide20.jpeg,/js/tasks/horizon/media/instruction_audio/slide20.m4a,10,baseline,Johns_Hopkins_R1.json,2022-07-22_10h19.49.142,johns_hopkins,/js/tasks/horizon/game_type_v3.xls,/js/tasks/horizon/media/johns_hopkins_instruct_slide_R1.csv,Horizon Task,3.2.5,MacIntel,60,0,horizon,Johns_Hopkins_R1.json
0,20,20,20,1,/js/tasks/horizon/media/horizonInstructions/points_definition_vanderbelt.jpg,,10,baseline,Johns_Hopkins_R1.json,2022-07-22_10h19.49.142,johns_hopkins,/js/tasks/horizon/game_type_v3.xls,/js/tasks/horizon/media/johns_hopkins_instruct_slide_R1.csv,Horizon Task,3.2.5,MacIntel,60,0,horizon,Johns_Hopkins_R1.json
,,,,,,,10,baseline,Johns_Hopkins_R1.json,2022-07-22_10h19.49.142,johns_hopkins,/js/tasks/horizon/game_type_v3.xls,/js/tasks/horizon/media/johns_hopkins_instruct_slide_R1.csv,Horizon Task,3.2.5,MacIntel,60,0,horizon,Johns_Hopkins_R1.json,right,62,8.752700000000175,0,0,0,0,1,0,h6,0,HR,52,62,UL,R
,,,,,,,10,baseline,Johns_Hopkins_R1.json,2022-07-22_10h19.49.142,johns_hopkins,/js/tasks/horizon/game_type_v3.xls,/js/tasks/horizon/media/johns_hopkins_instruct_slide_R1.csv,Horizon Task,3.2.5,MacIntel,60,0,horizon,Johns_Hopkins_R1.json,right,128,2.3280000000000314,0,1,1,1,1,0,h6,1,HR,56,66,UL,R
,,,,,,,10,baseline,Johns_Hopkins_R1.json,2022-07-22_10h19.49.142,johns_hopkins,/js/tasks/horizon/game_type_v3.xls,/js/tasks/horizon/media/johns_hopkins_instruct_slide_R1.csv,Horizon Task,3.2.5,MacIntel,60,0,horizon,Johns_Hopkins_R1.json,left,173,1.002999999999986,0,2,2,2,1,0,h6,2,HR,45,55,UL,L
,,,,,,,10,baseline,Johns_Hopkins_R1.json,2022-07-22_10h19.49.142,johns_hopkins,/js/tasks/horizon/game_type_v3.xls,/js/tasks/horizon/media/johns_hopkins_instruct_slide_R1.csv,Horizon Task,3.2.5,MacIntel,60,0,horizon,Johns_Hopkins_R1.json,right,222,0.6059999999999945,0,3,3,3,1,0,h6,3,HR,39,49,UL,R
,,,,,,,10,baseline,Johns_Hopkins_R1.json,2022-07-22_10h19.49.142,johns_hopkins,/js/tasks/horizon/game_type_v3.xls,/js/tasks/horizon/media/johns_hopkins_instruct_slide_R1.csv,Horizon Task,3.2.5,MacIntel,60,0,horizon,Johns_Hopkins_R1.json,left,273,1.7707000000001472,0,4,4,4,1,0,h6,4,HR,51,61,UL,X
,,,,,,,10,baseline,Johns_Hopkins_R1.json,2022-07-22_10h19.49.142,johns_hopkins,/js/tasks/horizon/game_type_v3.xls,/js/tasks/horizon/media/johns_hopkins_instruct_slide_R1.csv,Horizon Task,3.2.5,MacIntel,60,0,horizon,Johns_Hopkins_R1.json,right,333,4.116399999999942,0,5,5,5,1,0,h6,5,HR,50,60,UL,X
,,,,,,,10,baseline,Johns_Hopkins_R1.json,2022-07-22_10h19.49.142,johns_hopkins,/js/tasks/horizon/game_type_v3.xls,/js/tasks/horizon/media/johns_hopkins_instruct_slide_R1.csv,Horizon Task,3.2.5,MacIntel,60,0,horizon,Johns_Hopkins_R1.json,right,386,2.0854999999999677,0,6,6,6,1,0,h6,6,HR,43,53,UL,X
,,,,,,,10,baseline,Johns_Hopkins_R1.json,2022-07-22_10h19.49.142,johns_hopkins,/js/tasks/horizon/game_type_v3.xls,/js/tasks/horizon/media/johns_hopkins_instruct_slide_R1.csv,Horizon Task,3.2.5,MacIntel,60,0,horizon,Johns_Hopkins_R1.json,right,456,1.4836000000001377,0,7,7,7,1,0,h6,7,HR,60,70,UL,X
,,,,,,,10,baseline,Johns_Hopkins_R1.json,2022-07-22_10h19.49.142,johns_hopkins,/js/tasks/horizon/game_type_v3.xls,/js/tasks/horizon/media/johns_hopkins_instruct_slide_R1.csv,Horizon Task,3.2.5,MacIntel,60,0,horizon,Johns_Hopkins_R1.json,right,521,1.6340000000000146,0,8,8,8,1,0,h6,8,HR,55,65,UL,X
,,,,,,,10,baseline,Johns_Hopkins_R1.json,2022-07-22_10h19.49.142,johns_hopkins,/js/tasks/horizon/game_type_v3.xls,/js/tasks/horizon/media/johns_hopkins_instruct_slide_R1.csv,Horizon Task,3.2.5,MacIntel,60,0,horizon,Johns_Hopkins_R1.json,right,576,1.202300000000264,0,9,9,9,1,0,h6,9,HR,45,55,UL,X
,,,,,,,10,baseline,Johns_Hopkins_R1.json,2022-07-22_10h19.49.142,johns_hopkins,/js/tasks/horizon/game_type_v3.xls,/js/tasks/horizon/media/johns_hopkins_instruct_slide_R1.csv,Horizon Task,3.2.5,MacIntel,60,0,horizon,Johns_Hopkins_R1.json,left,598,1.0803999999998837,0,10,10,10,1,1,h1,0,LH,22,61,ER,L
,,,,,,,10,baseline,Johns_Hopkins_R1.json,2022-07-22_10h19.49.142,johns_hopkins,/js/tasks/horizon/game_type_v3.xls,/js/tasks/horizon/media/johns_hopkins_instruct_slide_R1.csv,Horizon Task,3.2.5,MacIntel,60,0,horizon,Johns_Hopkins_R1.json,right,661,0.5849999999999795,0,11,11,11,1,1,h1,1,LH,46,63,ER,R
,,,,,,,10,baseline,Johns_Hopkins_R1.json,2022-07-22_10h19.49.142,johns_hopkins,/js/tasks/horizon/game_type_v3.xls,/js/tasks/horizon/media/johns_hopkins_instruct_slide_R1.csv,Horizon Task,3.2.5,MacIntel,60,0,horizon,Johns_Hopkins_R1.json,right,706,1.85289999999992,0,12,12,12,1,1,h1,2,LH,12,45,ER,R
,,,,,,,10,baseline,Johns_Hopkins_R1.json,2022-07-22_10h19.49.142,johns_hopkins,/js/tasks/horizon/game_type_v3.xls,/js/tasks/horizon/media/johns_hopkins_instruct_slide_R1.csv,Horizon Task,3.2.5,MacIntel,60,0,horizon,Johns_Hopkins_R1.json,left,761,1.26829999999984,0,13,13,13,1,1,h1,3,LH,55,44,ER,L
,,,,,,,10,baseline,Johns_Hopkins_R1.json,2022-07-22_10h19.49.142,johns_hopkins,/js/tasks/horizon/game_type_v3.xls,/js/tasks/horizon/media/johns_hopkins_instruct_slide_R1.csv,Horizon Task,3.2.5,MacIntel,60,0,horizon,Johns_Hopkins_R1.json,right,816,2.1477999999997905,0,14,14,14,1,1,h1,4,LH,25,55,ER,X
,,,,,,,10,baseline,Johns_Hopkins_R1.json,2022-07-22_10h19.49.142,johns_hopkins,/js/tasks/horizon/game_type_v3.xls,/js/tasks/horizon/media/johns_hopkins_instruct_slide_R1.csv,Horizon Task,3.2.5,MacIntel,60,0,horizon,Johns_Hopkins_R1.json,left,858,0.7942000000001599,0,15,15,15,1,2,h6,0,HL,42,27,EL,L
,,,,,,,10,baseline,Johns_Hopkins_R1.json,2022-07-22_10h19.49.142,johns_hopkins,/js/tasks/horizon/game_type_v3.xls,/js/tasks/horizon/media/johns_hopkins_instruct_slide_R1.csv,Horizon Task,3.2.5,MacIntel,60,0,horizon,Johns_Hopkins_R1.json,right,905,1.1491000000000895,0,16,16,16,1,2,h6,1,HL,60,47,EL,R
,,,,,,,10,baseline,Johns_Hopkins_R1.json,2022-07-22_10h19.49.142,johns_hopkins,/js/tasks/horizon/game_type_v3.xls,/js/tasks/horizon/media/johns_hopkins_instruct_slide_R1.csv,Horizon Task,3.2.5,MacIntel,60,0,horizon,Johns_Hopkins_R1.json,left,974,0.6552000000002067,0,17,17,17,1,2,h6,2,HL,69,18,EL,L
,,,,,,,10,baseline,Johns_Hopkins_R1.json,2022-07-22_10h19.49.142,johns_hopkins,/js/tasks/horizon/game_type_v3.xls,/js/tasks/horizon/media/johns_hopkins_instruct_slide_R1.csv,Horizon Task,3.2.5,MacIntel,60,0,horizon,Johns_Hopkins_R1.json,right,980,0.9697000000001594,0,18,18,18,1,2,h6,3,HL,45,6,EL,R
,,,,,,,10,baseline,Johns_Hopkins_R1.json,2022-07-22_10h19.49.142,johns_hopkins,/js/tasks/horizon/game_type_v3.xls,/js/tasks/horizon/media/johns_hopkins_instruct_slide_R1.csv,Horizon Task,3.2.5,MacIntel,60,0,horizon,Johns_Hopkins_R1.json,left,1037,1.8834999999999695,0,19,19,19,1,2,h6,4,HL,57,29,EL,X
,,,,,,,10,baseline,Johns_Hopkins_R1.json,2022-07-22_10h19.49.142,johns_hopkins,/js/tasks/horizon/game_type_v3.xls,/js/tasks/horizon/media/johns_hopkins_instruct_slide_R1.csv,Horizon Task,3.2.5,MacIntel,60,0,horizon,Johns_Hopkins_R1.json,left,1103,1.8591000000001259,0,20,20,20,1,2,h6,5,HL,66,29,EL,X
,,,,,,,10,baseline,Johns_Hopkins_R1.json,2022-07-22_10h19.49.142,johns_hopkins,/js/tasks/horizon/game_type_v3.xls,/js/tasks/horizon/media/johns_hopkins_instruct_slide_R1.csv,Horizon Task,3.2.5,MacIntel,60,0,horizon,Johns_Hopkins_R1.json,left,1141,1.267499999999984,0,21,21,21,1,2,h6,6,HL,38,30,EL,X
,,,,,,,10,baseline,Johns_Hopkins_R1.json,2022-07-22_10h19.49.142,johns_hopkins,/js/tasks/horizon/game_type_v3.xls,/js/tasks/horizon/media/johns_hopkins_instruct_slide_R1.csv,Horizon Task,3.2.5,MacIntel,60,0,horizon,Johns_Hopkins_R1.json,left,1202,2.172499999999957,0,22,22,22,1,2,h6,7,HL,61,42,EL,X
,,,,,,,10,baseline,Johns_Hopkins_R1.json,2022-07-22_10h19.49.142,johns_hopkins,/js/tasks/horizon/game_type_v3.xls,/js/tasks/horizon/media/johns_hopkins_instruct_slide_R1.csv,Horizon Task,3.2.5,MacIntel,60,0,horizon,Johns_Hopkins_R1.json,left,1265,1.3692000000002054,0,23,23,23,1,2,h6,8,HL,63,56,EL,X
,,,,,,,10,baseline,Johns_Hopkins_R1.json,2022-07-22_10h19.49.142,johns_hopkins,/js/tasks/horizon/game_type_v3.xls,/js/tasks/horizon/media/johns_hopkins_instruct_slide_R1.csv,Horizon Task,3.2.5,MacIntel,60,0,horizon,Johns_Hopkins_R1.json,left,1302,0.9900999999996429,0,24,24,24,1,2,h6,9,HL,37,6,EL,X
,,,,,,,10,baseline,Johns_Hopkins_R1.json,2022-07-22_10h19.49.142,johns_hopkins,/js/tasks/horizon/game_type_v3.xls,/js/tasks/horizon/media/johns_hopkins_instruct_slide_R1.csv,Horizon Task,3.2.5,MacIntel,60,0,horizon,Johns_Hopkins_R1.json,right,1353,0.7509999999999764,0,25,25,25,1,3,h1,0,LH,20,51,EL,R
,,,,,,,10,baseline,Johns_Hopkins_R1.json,2022-07-22_10h19.49.142,johns_hopkins,/js/tasks/horizon/game_type_v3.xls,/js/tasks/horizon/media/johns_hopkins_instruct_slide_R1.csv,Horizon Task,3.2.5,MacIntel,60,0,horizon,Johns_Hopkins_R1.json,right,1394,1.4988999999998782,0,26,26,26,1,3,h1,1,LH,24,41,EL,R
,,,,,,,10,baseline,Johns_Hopkins_R1.json,2022-07-22_10h19.49.142,johns_hopkins,/js/tasks/horizon/game_type_v3.xls,/js/tasks/horizon/media/johns_hopkins_instruct_slide_R1.csv,Horizon Task,3.2.5,MacIntel,60,0,horizon,Johns_Hopkins_R1.json,left,1445,0.8862999999997783,0,27,27,27,1,3,h1,2,LH,51,43,EL,L
,,,,,,,10,baseline,Johns_Hopkins_R1.json,2022-07-22_10h19.49.142,johns_hopkins,/js/tasks/horizon/game_type_v3.xls,/js/tasks/horizon/media/johns_hopkins_instruct_slide_R1.csv,Horizon Task,3.2.5,MacIntel,60,0,horizon,Johns_Hopkins_R1.json,left,1465,3.6833999999998923,0,28,28,28,1,3,h1,3,LH,20,74,EL,L
,,,,,,,10,baseline,Johns_Hopkins_R1.json,2022-07-22_10h19.49.142,johns_hopkins,/js/tasks/horizon/game_type_v3.xls,/js/tasks/horizon/media/johns_hopkins_instruct_slide_R1.csv,Horizon Task,3.2.5,MacIntel,60,0,horizon,Johns_Hopkins_R1.json,right,1519,1.67349999999999,0,29,29,29,1,3,h1,4,LH,49,54,EL,X
,,,,,,,10,baseline,Johns_Hopkins_R1.json,2022-07-22_10h19.49.142,johns_hopkins,/js/tasks/horizon/game_type_v3.xls,/js/tasks/horizon/media/johns_hopkins_instruct_slide_R1.csv,Horizon Task,3.2.5,MacIntel,60,0,horizon,Johns_Hopkins_R1.json,left,40,1.2167999999998074,,,,,,0,h1,0,LH,40,64,,L,0,0,0,0,1,40,52
,,,,,,,10,baseline,Johns_Hopkins_R1.json,2022-07-22_10h19.49.142,johns_hopkins,/js/tasks/horizon/game_type_v3.xls,/js/tasks/horizon/media/johns_hopkins_instruct_slide_R1.csv,Horizon Task,3.2.5,MacIntel,60,0,horizon,Johns_Hopkins_R1.json,left,84,0.790100000000109,,,,,,0,h1,1,LH,44,48,,L,0,1,1,1,1,40,52
,,,,,,,10,baseline,Johns_Hopkins_R1.json,2022-07-22_10h19.49.142,johns_hopkins,/js/tasks/horizon/game_type_v3.xls,/js/tasks/horizon/media/johns_hopkins_instruct_slide_R1.csv,Horizon Task,3.2.5,MacIntel,60,0,horizon,Johns_Hopkins_R1.json,right,136,0.6086999999997147,,,,,,0,h1,2,LH,58,52,,R,0,2,2,2,1,40,52
,,,,,,,10,baseline,Johns_Hopkins_R1.json,2022-07-22_10h19.49.142,johns_hopkins,/js/tasks/horizon/game_type_v3.xls,/js/tasks/horizon/media/johns_hopkins_instruct_slide_R1.csv,Horizon Task,3.2.5,MacIntel,60,0,horizon,Johns_Hopkins_R1.json,left,176,0.6305000000000405,,,,,,0,h1,3,LH,40,62,,L,0,3,3,3,1,40,52
,,,,,,,10,baseline,Johns_Hopkins_R1.json,2022-07-22_10h19.49.142,johns_hopkins,/js/tasks/horizon/game_type_v3.xls,/js/tasks/horizon/media/johns_hopkins_instruct_slide_R1.csv,Horizon Task,3.2.5,MacIntel,60,0,horizon,Johns_Hopkins_R1.json,left,228,2.2194999999999823,,,,,,0,h1,4,LH,52,40,,X,0,4,4,4,1,40,52
,,,,,,,10,baseline,Johns_Hopkins_R1.json,2022-07-22_10h19.49.142,johns_hopkins,/js/tasks/horizon/game_type_v3.xls,/js/tasks/horizon/media/johns_hopkins_instruct_slide_R1.csv,Horizon Task,3.2.5,MacIntel,60,0,horizon,Johns_Hopkins_R1.json,right,286,0.5865000000000009,,,,,,1,h6,0,LH,58,58,,R,0,5,5,5,1,60,64
,,,,,,,10,baseline,Johns_Hopkins_R1.json,2022-07-22_10h19.49.142,johns_hopkins,/js/tasks/horizon/game_type_v3.xls,/js/tasks/horizon/media/johns_hopkins_instruct_slide_R1.csv,Horizon Task,3.2.5,MacIntel,60,0,horizon,Johns_Hopkins_R1.json,left,345,0.6223000000002799,,,,,,1,h6,1,LH,59,60,,L,0,6,6,6,1,60,64
,,,,,,,10,baseline,Johns_Hopkins_R1.json,2022-07-22_10h19.49.142,johns_hopkins,/js/tasks/horizon/game_type_v3.xls,/js/tasks/horizon/media/johns_hopkins_instruct_slide_R1.csv,Horizon Task,3.2.5,MacIntel,60,0,horizon,Johns_Hopkins_R1.json,right,409,1.281499999999994,,,,,,1,h6,2,LH,61,64,,R,0,7,7,7,1,60,64
,,,,,,,10,baseline,Johns_Hopkins_R1.json,2022-07-22_10h19.49.142,johns_hopkins,/js/tasks/horizon/game_type_v3.xls,/js/tasks/horizon/media/johns_hopkins_instruct_slide_R1.csv,Horizon Task,3.2.5,MacIntel,60,0,horizon,Johns_Hopkins_R1.json,right,472,0.7347999999998365,,,,,,1,h6,3,LH,55,63,,R,0,8,8,8,1,60,64
,,,,,,,10,baseline,Johns_Hopkins_R1.json,2022-07-22_10h19.49.142,johns_hopkins,/js/tasks/horizon/game_type_v3.xls,/js/tasks/horizon/media/johns_hopkins_instruct_slide_R1.csv,Horizon Task,3.2.5,MacIntel,60,0,horizon,Johns_Hopkins_R1.json,right,541,2.0674999999999955,,,,,,1,h6,4,LH,69,69,,X,0,9,9,9,1,60,64
,,,,,,,10,baseline,Johns_Hopkins_R1.json,2022-07-22_10h19.49.142,johns_hopkins,/js/tasks/horizon/game_type_v3.xls,/js/tasks/horizon/media/johns_hopkins_instruct_slide_R1.csv,Horizon Task,3.2.5,MacIntel,60,0,horizon,Johns_Hopkins_R1.json,right,618,1.0047999999998183,,,,,,1,h6,5,LH,58,77,,X,0,10,10,10,1,60,64
,,,,,,,10,baseline,Johns_Hopkins_R1.json,2022-07-22_10h19.49.142,johns_hopkins,/js/tasks/horizon/game_type_v3.xls,/js/tasks/horizon/media/johns_hopkins_instruct_slide_R1.csv,Horizon Task,3.2.5,MacIntel,60,0,horizon,Johns_Hopkins_R1.json,right,665,1.25589999999994,,,,,,1,h6,6,LH,51,47,,X,0,11,11,11,1,60,64
,,,,,,,10,baseline,Johns_Hopkins_R1.json,2022-07-22_10h19.49.142,johns_hopkins,/js/tasks/horizon/game_type_v3.xls,/js/tasks/horizon/media/johns_hopkins_instruct_slide_R1.csv,Horizon Task,3.2.5,MacIntel,60,0,horizon,Johns_Hopkins_R1.json,left,717,3.0281000000001086,,,,,,1,h6,7,LH,52,56,,X,0,12,12,12,1,60,64
,,,,,,,10,baseline,Johns_Hopkins_R1.json,2022-07-22_10h19.49.142,johns_hopkins,/js/tasks/horizon/game_type_v3.xls,/js/tasks/horizon/media/johns_hopkins_instruct_slide_R1.csv,Horizon Task,3.2.5,MacIntel,60,0,horizon,Johns_Hopkins_R1.json,left,779,2.5502000000001885,,,,,,1,h6,8,LH,62,56,,X,0,13,13,13,1,60,64
,,,,,,,10,baseline,Johns_Hopkins_R1.json,2022-07-22_10h19.49.142,johns_hopkins,/js/tasks/horizon/game_type_v3.xls,/js/tasks/horizon/media/johns_hopkins_instruct_slide_R1.csv,Horizon Task,3.2.5,MacIntel,60,0,horizon,Johns_Hopkins_R1.json,left,840,2.0372999999998456,,,,,,1,h6,9,LH,61,72,,X,0,14,14,14,1,60,64
,,,,,,,10,baseline,Johns_Hopkins_R1.json,2022-07-22_10h19.49.142,johns_hopkins,/js/tasks/horizon/game_type_v3.xls,/js/tasks/horizon/media/johns_hopkins_instruct_slide_R1.csv,Horizon Task,3.2.5,MacIntel,60,0,horizon,Johns_Hopkins_R1.json,right,907,1.0327000000002045,,,,,,2,h1,0,LH,48,67,,R,0,15,15,15,1,40,70
,,,,,,,10,baseline,Johns_Hopkins_R1.json,2022-07-22_10h19.49.142,johns_hopkins,/js/tasks/horizon/game_type_v3.xls,/js/tasks/horizon/media/johns_hopkins_instruct_slide_R1.csv,Horizon Task,3.2.5,MacIntel,60,0,horizon,Johns_Hopkins_R1.json,left,954,1.2663000000002853,,,,,,2,h1,1,LH,47,62,,L,0,16,16,16,1,40,70
,,,,,,,10,baseline,Johns_Hopkins_R1.json,2022-07-22_10h19.49.142,johns_hopkins,/js/tasks/horizon/game_type_v3.xls,/js/tasks/horizon/media/johns_hopkins_instruct_slide_R1.csv,Horizon Task,3.2.5,MacIntel,60,0,horizon,Johns_Hopkins_R1.json,right,1016,1.3843999999999141,,,,,,2,h1,2,LH,39,62,,R,0,17,17,17,1,40,70
,,,,,,,10,baseline,Johns_Hopkins_R1.json,2022-07-22_10h19.49.142,johns_hopkins,/js/tasks/horizon/game_type_v3.xls,/js/tasks/horizon/media/johns_hopkins_instruct_slide_R1.csv,Horizon Task,3.2.5,MacIntel,60,0,horizon,Johns_Hopkins_R1.json,left,1051,1.2837000000001808,,,,,,2,h1,3,LH,35,65,,L,0,18,18,18,1,40,70
,,,,,,,10,baseline,Johns_Hopkins_R1.json,2022-07-22_10h19.49.142,johns_hopkins,/js/tasks/horizon/game_type_v3.xls,/js/tasks/horizon/media/johns_hopkins_instruct_slide_R1.csv,Horizon Task,3.2.5,MacIntel,60,0,horizon,Johns_Hopkins_R1.json,right,1118,0.9162999999998647,,,,,,2,h1,4,LH,50,67,,X,0,19,19,19,1,40,70
,,,,,,,10,baseline,Johns_Hopkins_R1.json,2022-07-22_10h19.49.142,johns_hopkins,/js/tasks/horizon/game_type_v3.xls,/js/tasks/horizon/media/johns_hopkins_instruct_slide_R1.csv,Horizon Task,3.2.5,MacIntel,60,0,horizon,Johns_Hopkins_R1.json,right,1162,1.117700000000184,,,,,,3,h1,0,LH,31,44,,R,0,20,20,20,1,28,40
,,,,,,,10,baseline,Johns_Hopkins_R1.json,2022-07-22_10h19.49.142,johns_hopkins,/js/tasks/horizon/game_type_v3.xls,/js/tasks/horizon/media/johns_hopkins_instruct_slide_R1.csv,Horizon Task,3.2.5,MacIntel,60,0,horizon,Johns_Hopkins_R1.json,left,1189,0.7212999999998146,,,,,,3,h1,1,LH,27,54,,L,0,21,21,21,1,28,40
,,,,,,,10,baseline,Johns_Hopkins_R1.json,2022-07-22_10h19.49.142,johns_hopkins,/js/tasks/horizon/game_type_v3.xls,/js/tasks/horizon/media/johns_hopkins_instruct_slide_R1.csv,Horizon Task,3.2.5,MacIntel,60,0,horizon,Johns_Hopkins_R1.json,right,1228,1.0368000000003121,,,,,,3,h1,2,LH,25,39,,R,0,22,22,22,1,28,40
,,,,,,,10,baseline,Johns_Hopkins_R1.json,2022-07-22_10h19.49.142,johns_hopkins,/js/tasks/horizon/game_type_v3.xls,/js/tasks/horizon/media/johns_hopkins_instruct_slide_R1.csv,Horizon Task,3.2.5,MacIntel,60,0,horizon,Johns_Hopkins_R1.json,left,1257,1.9501000000000772,,,,,,3,h1,3,LH,29,30,,L,0,23,23,23,1,28,40
,,,,,,,10,baseline,Johns_Hopkins_R1.json,2022-07-22_10h19.49.142,johns_hopkins,/js/tasks/horizon/game_type_v3.xls,/js/tasks/horizon/media/johns_hopkins_instruct_slide_R1.csv,Horizon Task,3.2.5,MacIntel,60,0,horizon,Johns_Hopkins_R1.json,right,1304,1.3123000000002776,,,,,,3,h1,4,LH,29,47,,X,0,24,24,24,1,28,40
,,,,,,,10,baseline,Johns_Hopkins_R1.json,2022-07-22_10h19.49.142,johns_hopkins,/js/tasks/horizon/game_type_v3.xls,/js/tasks/horizon/media/johns_hopkins_instruct_slide_R1.csv,Horizon Task,3.2.5,MacIntel,60,0,horizon,Johns_Hopkins_R1.json,right,1326,0.5666000000000508,,,,,,4,h1,0,HL,67,22,,R,0,25,25,25,1,60,30
,,,,,,,10,baseline,Johns_Hopkins_R1.json,2022-07-22_10h19.49.142,johns_hopkins,/js/tasks/horizon/game_type_v3.xls,/js/tasks/horizon/media/johns_hopkins_instruct_slide_R1.csv,Horizon Task,3.2.5,MacIntel,60,0,horizon,Johns_Hopkins_R1.json,right,1364,0.5993999999998891,,,,,,4,h1,1,HL,55,38,,R,0,26,26,26,1,60,30
,,,,,,,10,baseline,Johns_Hopkins_R1.json,2022-07-22_10h19.49.142,johns_hopkins,/js/tasks/horizon/game_type_v3.xls,/js/tasks/horizon/media/johns_hopkins_instruct_slide_R1.csv,Horizon Task,3.2.5,MacIntel,60,0,horizon,Johns_Hopkins_R1.json,right,1398,0.7171000000000731,,,,,,4,h1,2,HL,83,34,,R,0,27,27,27,1,60,30
,,,,,,,10,baseline,Johns_Hopkins_R1.json,2022-07-22_10h19.49.142,johns_hopkins,/js/tasks/horizon/game_type_v3.xls,/js/tasks/horizon/media/johns_hopkins_instruct_slide_R1.csv,Horizon Task,3.2.5,MacIntel,60,0,horizon,Johns_Hopkins_R1.json,left,1465,0.6892999999998324,,,,,,4,h1,3,HL,67,27,,L,0,28,28,28,1,60,30
,,,,,,,10,baseline,Johns_Hopkins_R1.json,2022-07-22_10h19.49.142,johns_hopkins,/js/tasks/horizon/game_type_v3.xls,/js/tasks/horizon/media/johns_hopkins_instruct_slide_R1.csv,Horizon Task,3.2.5,MacIntel,60,0,horizon,Johns_Hopkins_R1.json,left,1529,1.5737000000001444,,,,,,4,h1,4,HL,64,30,,X,0,29,29,29,1,60,30
,,,,,,,10,baseline,Johns_Hopkins_R1.json,2022-07-22_10h19.49.142,johns_hopkins,/js/tasks/horizon/game_type_v3.xls,/js/tasks/horizon/media/johns_hopkins_instruct_slide_R1.csv,Horizon Task,3.2.5,MacIntel,60,0,horizon,Johns_Hopkins_R1.json,left,1604,1.0378999999999223,,,,,,5,h1,0,HL,75,55,,L,0,30,30,30,1,72,60
,,,,,,,10,baseline,Johns_Hopkins_R1.json,2022-07-22_10h19.49.142,johns_hopkins,/js/tasks/horizon/game_type_v3.xls,/js/tasks/horizon/media/johns_hopkins_instruct_slide_R1.csv,Horizon Task,3.2.5,MacIntel,60,0,horizon,Johns_Hopkins_R1.json,right,1679,0.8280999999996084,,,,,,5,h1,1,HL,62,75,,R,0,31,31,31,1,72,60
,,,,,,,10,baseline,Johns_Hopkins_R1.json,2022-07-22_10h19.49.142,johns_hopkins,/js/tasks/horizon/game_type_v3.xls,/js/tasks/horizon/media/johns_hopkins_instruct_slide_R1.csv,Horizon Task,3.2.5,MacIntel,60,0,horizon,Johns_Hopkins_R1.json,left,1748,0.8027999999998201,,,,,,5,h1,2,HL,69,58,,L,0,32,32,32,1,72,60
,,,,,,,10,baseline,Johns_Hopkins_R1.json,2022-07-22_10h19.49.142,johns_hopkins,/js/tasks/horizon/game_type_v3.xls,/js/tasks/horizon/media/johns_hopkins_instruct_slide_R1.csv,Horizon Task,3.2.5,MacIntel,60,0,horizon,Johns_Hopkins_R1.json,right,1798,0.7387999999997987,,,,,,5,h1,3,HL,69,50,,R,0,33,33,33,1,72,60
,,,,,,,10,baseline,Johns_Hopkins_R1.json,2022-07-22_10h19.49.142,johns_hopkins,/js/tasks/horizon/game_type_v3.xls,/js/tasks/horizon/media/johns_hopkins_instruct_slide_R1.csv,Horizon Task,3.2.5,MacIntel,60,0,horizon,Johns_Hopkins_R1.json,left,1879,1.0216999999997256,,,,,,5,h1,4,HL,81,50,,X,0,34,34,34,1,72,60
,,,,,,,10,baseline,Johns_Hopkins_R1.json,2022-07-22_10h19.49.142,johns_hopkins,/js/tasks/horizon/game_type_v3.xls,/js/tasks/horizon/media/johns_hopkins_instruct_slide_R1.csv,Horizon Task,3.2.5,MacIntel,60,0,horizon,Johns_Hopkins_R1.json,right,1945,0.9985999999996125,,,,,,6,h1,0,HL,62,66,,R,0,35,35,35,1,68,60
,,,,,,,10,baseline,Johns_Hopkins_R1.json,2022-07-22_10h19.49.142,johns_hopkins,/js/tasks/horizon/game_type_v3.xls,/js/tasks/horizon/media/johns_hopkins_instruct_slide_R1.csv,Horizon Task,3.2.5,MacIntel,60,0,horizon,Johns_Hopkins_R1.json,left,2021,0.5208000000002926,,,,,,6,h1,1,HL,76,44,,L,0,36,36,36,1,68,60
,,,,,,,10,baseline,Johns_Hopkins_R1.json,2022-07-22_10h19.49.142,johns_hopkins,/js/tasks/horizon/game_type_v3.xls,/js/tasks/horizon/media/johns_hopkins_instruct_slide_R1.csv,Horizon Task,3.2.5,MacIntel,60,0,horizon,Johns_Hopkins_R1.json,left,2081,0.9031000000001086,,,,,,6,h1,2,HL,60,51,,L,0,37,37,37,1,68,60
,,,,,,,10,baseline,Johns_Hopkins_R1.json,2022-07-22_10h19.49.142,johns_hopkins,/js/tasks/horizon/game_type_v3.xls,/js/tasks/horizon/media/johns_hopkins_instruct_slide_R1.csv,Horizon Task,3.2.5,MacIntel,60,0,horizon,Johns_Hopkins_R1.json,right,2135,2.269699999999716,,,,,,6,h1,3,HL,57,54,,R,0,38,38,38,1,68,60
,,,,,,,10,baseline,Johns_Hopkins_R1.json,2022-07-22_10h19.49.142,johns_hopkins,/js/tasks/horizon/game_type_v3.xls,/js/tasks/horizon/media/johns_hopkins_instruct_slide_R1.csv,Horizon Task,3.2.5,MacIntel,60,0,horizon,Johns_Hopkins_R1.json,left,2198,1.9807999999998174,,,,,,6,h1,4,HL,63,47,,X,0,39,39,39,1,68,60
,,,,,,,10,baseline,Johns_Hopkins_R1.json,2022-07-22_10h19.49.142,johns_hopkins,/js/tasks/horizon/game_type_v3.xls,/js/tasks/horizon/media/johns_hopkins_instruct_slide_R1.csv,Horizon Task,3.2.5,MacIntel,60,0,horizon,Johns_Hopkins_R1.json,left,2237,1.0526999999997315,,,,,,7,h1,0,HL,39,32,,L,0,40,40,40,1,44,40
,,,,,,,10,baseline,Johns_Hopkins_R1.json,2022-07-22_10h19.49.142,johns_hopkins,/js/tasks/horizon/game_type_v3.xls,/js/tasks/horizon/media/johns_hopkins_instruct_slide_R1.csv,Horizon Task,3.2.5,MacIntel,60,0,horizon,Johns_Hopkins_R1.json,left,2286,0.8854999999999791,,,,,,7,h1,1,HL,49,52,,L,0,41,41,41,1,44,40
,,,,,,,10,baseline,Johns_Hopkins_R1.json,2022-07-22_10h19.49.142,johns_hopkins,/js/tasks/horizon/game_type_v3.xls,/js/tasks/horizon/media/johns_hopkins_instruct_slide_R1.csv,Horizon Task,3.2.5,MacIntel,60,0,horizon,Johns_Hopkins_R1.json,left,2325,0.9367999999997778,,,,,,7,h1,2,HL,39,32,,L,0,42,42,42,1,44,40
,,,,,,,10,baseline,Johns_Hopkins_R1.json,2022-07-22_10h19.49.142,johns_hopkins,/js/tasks/horizon/game_type_v3.xls,/js/tasks/horizon/media/johns_hopkins_instruct_slide_R1.csv,Horizon Task,3.2.5,MacIntel,60,0,horizon,Johns_Hopkins_R1.json,right,2372,0.7492000000002008,,,,,,7,h1,3,HL,36,47,,R,0,43,43,43,1,44,40
,,,,,,,10,baseline,Johns_Hopkins_R1.json,2022-07-22_10h19.49.142,johns_hopkins,/js/tasks/horizon/game_type_v3.xls,/js/tasks/horizon/media/johns_hopkins_instruct_slide_R1.csv,Horizon Task,3.2.5,MacIntel,60,0,horizon,Johns_Hopkins_R1.json,right,2409,1.6521000000000754,,,,,,7,h1,4,HL,39,37,,X,0,44,44,44,1,44,40
,,,,,,,10,baseline,Johns_Hopkins_R1.json,2022-07-22_10h19.49.142,johns_hopkins,/js/tasks/horizon/game_type_v3.xls,/js/tasks/horizon/media/johns_hopkins_instruct_slide_R1.csv,Horizon Task,3.2.5,MacIntel,60,0,horizon,Johns_Hopkins_R1.json,left,2505,1.0848000000002571,,,,,,8,h6,0,HL,96,65,,L,0,45,45,45,1,90,60
,,,,,,,10,baseline,Johns_Hopkins_R1.json,2022-07-22_10h19.49.142,johns_hopkins,/js/tasks/horizon/game_type_v3.xls,/js/tasks/horizon/media/johns_hopkins_instruct_slide_R1.csv,Horizon Task,3.2.5,MacIntel,60,0,horizon,Johns_Hopkins_R1.json,left,2593,1.7549999999999955,,,,,,8,h6,1,HL,88,57,,L,0,46,46,46,1,90,60
,,,,,,,10,baseline,Johns_Hopkins_R1.json,2022-07-22_10h19.49.142,johns_hopkins,/js/tasks/horizon/game_type_v3.xls,/js/tasks/horizon/media/johns_hopkins_instruct_slide_R1.csv,Horizon Task,3.2.5,MacIntel,60,0,horizon,Johns_Hopkins_R1.json,right,2652,0.605899999999906,,,,,,8,h6,2,HL,84,59,,R,0,47,47,47,1,90,60
,,,,,,,10,baseline,Johns_Hopkins_R1.json,2022-07-22_10h19.49.142,johns_hopkins,/js/tasks/horizon/game_type_v3.xls,/js/tasks/horizon/media/johns_hopkins_instruct_slide_R1.csv,Horizon Task,3.2.5,MacIntel,60,0,horizon,Johns_Hopkins_R1.json,right,2719,0.5986000000001468,,,,,,8,h6,3,HL,76,67,,R,0,48,48,48,1,90,60
,,,,,,,10,baseline,Johns_Hopkins_R1.json,2022-07-22_10h19.49.142,johns_hopkins,/js/tasks/horizon/game_type_v3.xls,/js/tasks/horizon/media/johns_hopkins_instruct_slide_R1.csv,Horizon Task,3.2.5,MacIntel,60,0,horizon,Johns_Hopkins_R1.json,left,2818,1.6668999999999414,,,,,,8,h6,4,HL,99,71,,X,0,49,49,49,1,90,60
,,,,,,,10,baseline,Johns_Hopkins_R1.json,2022-07-22_10h19.49.142,johns_hopkins,/js/tasks/horizon/game_type_v3.xls,/js/tasks/horizon/media/johns_hopkins_instruct_slide_R1.csv,Horizon Task,3.2.5,MacIntel,60,0,horizon,Johns_Hopkins_R1.json,left,2910,1.3636000000000763,,,,,,8,h6,5,HL,92,41,,X,0,50,50,50,1,90,60
,,,,,,,10,baseline,Johns_Hopkins_R1.json,2022-07-22_10h19.49.142,johns_hopkins,/js/tasks/horizon/game_type_v3.xls,/js/tasks/horizon/media/johns_hopkins_instruct_slide_R1.csv,Horizon Task,3.2.5,MacIntel,60,0,horizon,Johns_Hopkins_R1.json,left,2991,1.7360999999996238,,,,,,8,h6,6,HL,81,65,,X,0,51,51,51,1,90,60
,,,,,,,10,baseline,Johns_Hopkins_R1.json,2022-07-22_10h19.49.142,johns_hopkins,/js/tasks/horizon/game_type_v3.xls,/js/tasks/horizon/media/johns_hopkins_instruct_slide_R1.csv,Horizon Task,3.2.5,MacIntel,60,0,horizon,Johns_Hopkins_R1.json,right,3043,0.8677999999998178,,,,,,8,h6,7,HL,95,52,,X,0,52,52,52,1,90,60
,,,,,,,10,baseline,Johns_Hopkins_R1.json,2022-07-22_10h19.49.142,johns_hopkins,/js/tasks/horizon/game_type_v3.xls,/js/tasks/horizon/media/johns_hopkins_instruct_slide_R1.csv,Horizon Task,3.2.5,MacIntel,60,0,horizon,Johns_Hopkins_R1.json,left,3133,2.1458999999999264,,,,,,8,h6,8,HL,90,70,,X,0,53,53,53,1,90,60
,,,,,,,10,baseline,Johns_Hopkins_R1.json,2022-07-22_10h19.49.142,johns_hopkins,/js/tasks/horizon/game_type_v3.xls,/js/tasks/horizon/media/johns_hopkins_instruct_slide_R1.csv,Horizon Task,3.2.5,MacIntel,60,0,horizon,Johns_Hopkins_R1.json,left,3232,1.0356000000001018,,,,,,8,h6,9,HL,99,56,,X,0,54,54,54,1,90,60
,,,,,,,10,baseline,Johns_Hopkins_R1.json,2022-07-22_10h19.49.142,johns_hopkins,/js/tasks/horizon/game_type_v3.xls,/js/tasks/horizon/media/johns_hopkins_instruct_slide_R1.csv,Horizon Task,3.2.5,MacIntel,60,0,horizon,Johns_Hopkins_R1.json,right,3268,0.7028000000002521,,,,,,9,h6,0,HL,39,36,,R,0,55,55,55,1,40,36
,,,,,,,10,baseline,Johns_Hopkins_R1.json,2022-07-22_10h19.49.142,johns_hopkins,/js/tasks/horizon/game_type_v3.xls,/js/tasks/horizon/media/johns_hopkins_instruct_slide_R1.csv,Horizon Task,3.2.5,MacIntel,60,0,horizon,Johns_Hopkins_R1.json,right,3289,1.9753000000002316,,,,,,9,h6,1,HL,31,21,,R,0,56,56,56,1,40,36
,,,,,,,10,baseline,Johns_Hopkins_R1.json,2022-07-22_10h19.49.142,johns_hopkins,/js/tasks/horizon/game_type_v3.xls,/js/tasks/horizon/media/johns_hopkins_instruct_slide_R1.csv,Horizon Task,3.2.5,MacIntel,60,0,horizon,Johns_Hopkins_R1.json,left,3335,0.8521999999996979,,,,,,9,h6,2,HL,46,27,,L,0,57,57,57,1,40,36
,,,,,,,10,baseline,Johns_Hopkins_R1.json,2022-07-22_10h19.49.142,johns_hopkins,/js/tasks/horizon/game_type_v3.xls,/js/tasks/horizon/media/johns_hopkins_instruct_slide_R1.csv,Horizon Task,3.2.5,MacIntel,60,0,horizon,Johns_Hopkins_R1.json,left,3361,2.0341000000000804,,,,,,9,h6,3,HL,26,50,,L,0,58,58,58,1,40,36
,,,,,,,10,baseline,Johns_Hopkins_R1.json,2022-07-22_10h19.49.142,johns_hopkins,/js/tasks/horizon/game_type_v3.xls,/js/tasks/horizon/media/johns_hopkins_instruct_slide_R1.csv,Horizon Task,3.2.5,MacIntel,60,0,horizon,Johns_Hopkins_R1.json,left,3402,2.350999999999999,,,,,,9,h6,4,HL,41,28,,X,0,59,59,59,1,40,36
,,,,,,,10,baseline,Johns_Hopkins_R1.json,2022-07-22_10h19.49.142,johns_hopkins,/js/tasks/horizon/game_type_v3.xls,/js/tasks/horizon/media/johns_hopkins_instruct_slide_R1.csv,Horizon Task,3.2.5,MacIntel,60,0,horizon,Johns_Hopkins_R1.json,left,3437,1.4186000000000831,,,,,,9,h6,5,HL,35,37,,X,0,60,60,60,1,40,36
,,,,,,,10,baseline,Johns_Hopkins_R1.json,2022-07-22_10h19.49.142,johns_hopkins,/js/tasks/horizon/game_type_v3.xls,/js/tasks/horizon/media/johns_hopkins_instruct_slide_R1.csv,Horizon Task,3.2.5,MacIntel,60,0,horizon,Johns_Hopkins_R1.json,right,3475,1.4217000000002145,,,,,,9,h6,6,HL,36,38,,X,0,61,61,61,1,40,36
,,,,,,,10,baseline,Johns_Hopkins_R1.json,2022-07-22_10h19.49.142,johns_hopkins,/js/tasks/horizon/game_type_v3.xls,/js/tasks/horizon/media/johns_hopkins_instruct_slide_R1.csv,Horizon Task,3.2.5,MacIntel,60,0,horizon,Johns_Hopkins_R1.json,right,3497,1.4390000000000214,,,,,,9,h6,7,HL,46,22,,X,0,62,62,62,1,40,36
,,,,,,,10,baseline,Johns_Hopkins_R1.json,2022-07-22_10h19.49.142,johns_hopkins,/js/tasks/horizon/game_type_v3.xls,/js/tasks/horizon/media/johns_hopkins_instruct_slide_R1.csv,Horizon Task,3.2.5,MacIntel,60,0,horizon,Johns_Hopkins_R1.json,left,3532,1.487899999999911,,,,,,9,h6,8,HL,35,32,,X,0,63,63,63,1,40,36
,,,,,,,10,baseline,Johns_Hopkins_R1.json,2022-07-22_10h19.49.142,johns_hopkins,/js/tasks/horizon/game_type_v3.xls,/js/tasks/horizon/media/johns_hopkins_instruct_slide_R1.csv,Horizon Task,3.2.5,MacIntel,60,0,horizon,Johns_Hopkins_R1.json,left,3569,1.2364999999999782,,,,,,9,h6,9,HL,37,30,,X,0,64,64,64,1,40,36
,,,,,,,10,baseline,Johns_Hopkins_R1.json,2022-07-22_10h19.49.142,johns_hopkins,/js/tasks/horizon/game_type_v3.xls,/js/tasks/horizon/media/johns_hopkins_instruct_slide_R1.csv,Horizon Task,3.2.5,MacIntel,60,0,horizon,Johns_Hopkins_R1.json,right,3615,0.7693000000002712,,,,,,10,h1,0,HL,70,46,,R,0,65,65,65,1,60,40
,,,,,,,10,baseline,Johns_Hopkins_R1.json,2022-07-22_10h19.49.142,johns_hopkins,/js/tasks/horizon/game_type_v3.xls,/js/tasks/horizon/media/johns_hopkins_instruct_slide_R1.csv,Horizon Task,3.2.5,MacIntel,60,0,horizon,Johns_Hopkins_R1.json,right,3651,1.5658999999998855,,,,,,10,h1,1,HL,54,36,,R,0,66,66,66,1,60,40
,,,,,,,10,baseline,Johns_Hopkins_R1.json,2022-07-22_10h19.49.142,johns_hopkins,/js/tasks/horizon/game_type_v3.xls,/js/tasks/horizon/media/johns_hopkins_instruct_slide_R1.csv,Horizon Task,3.2.5,MacIntel,60,0,horizon,Johns_Hopkins_R1.json,right,3677,0.8338999999999146,,,,,,10,h1,2,HL,46,26,,R,0,67,67,67,1,60,40
,,,,,,,10,baseline,Johns_Hopkins_R1.json,2022-07-22_10h19.49.142,johns_hopkins,/js/tasks/horizon/game_type_v3.xls,/js/tasks/horizon/media/johns_hopkins_instruct_slide_R1.csv,Horizon Task,3.2.5,MacIntel,60,0,horizon,Johns_Hopkins_R1.json,left,3745,0.8507000000001881,,,,,,10,h1,3,HL,68,32,,L,0,68,68,68,1,60,40
,,,,,,,10,baseline,Johns_Hopkins_R1.json,2022-07-22_10h19.49.142,johns_hopkins,/js/tasks/horizon/game_type_v3.xls,/js/tasks/horizon/media/johns_hopkins_instruct_slide_R1.csv,Horizon Task,3.2.5,MacIntel,60,0,horizon,Johns_Hopkins_R1.json,left,3806,0.9882000000001767,,,,,,10,h1,4,HL,61,46,,X,0,69,69,69,1,60,40
,,,,,,,10,baseline,Johns_Hopkins_R1.json,2022-07-22_10h19.49.142,johns_hopkins,/js/tasks/horizon/game_type_v3.xls,/js/tasks/horizon/media/johns_hopkins_instruct_slide_R1.csv,Horizon Task,3.2.5,MacIntel,60,0,horizon,Johns_Hopkins_R1.json,right,3817,0.5473999999999251,,,,,,11,h1,0,HL,30,11,,R,0,70,70,70,1,40,10
,,,,,,,10,baseline,Johns_Hopkins_R1.json,2022-07-22_10h19.49.142,johns_hopkins,/js/tasks/horizon/game_type_v3.xls,/js/tasks/horizon/media/johns_hopkins_instruct_slide_R1.csv,Horizon Task,3.2.5,MacIntel,60,0,horizon,Johns_Hopkins_R1.json,left,3856,0.5542000000001508,,,,,,11,h1,1,HL,39,7,,L,0,71,71,71,1,40,10
,,,,,,,10,baseline,Johns_Hopkins_R1.json,2022-07-22_10h19.49.142,johns_hopkins,/js/tasks/horizon/game_type_v3.xls,/js/tasks/horizon/media/johns_hopkins_instruct_slide_R1.csv,Horizon Task,3.2.5,MacIntel,60,0,horizon,Johns_Hopkins_R1.json,right,3857,1.0216000000000918,,,,,,11,h1,2,HL,45,1,,R,0,72,72,72,1,40,10
,,,,,,,10,baseline,Johns_Hopkins_R1.json,2022-07-22_10h19.49.142,johns_hopkins,/js/tasks/horizon/game_type_v3.xls,/js/tasks/horizon/media/johns_hopkins_instruct_slide_R1.csv,Horizon Task,3.2.5,MacIntel,60,0,horizon,Johns_Hopkins_R1.json,left,3891,0.7992000000002122,,,,,,11,h1,3,HL,34,9,,L,0,73,73,73,1,40,10
,,,,,,,10,baseline,Johns_Hopkins_R1.json,2022-07-22_10h19.49.142,johns_hopkins,/js/tasks/horizon/game_type_v3.xls,/js/tasks/horizon/media/johns_hopkins_instruct_slide_R1.csv,Horizon Task,3.2.5,MacIntel,60,0,horizon,Johns_Hopkins_R1.json,left,3924,2.016900000000362,,,,,,11,h1,4,HL,33,19,,X,0,74,74,74,1,40,10
,,,,,,,10,baseline,Johns_Hopkins_R1.json,2022-07-22_10h19.49.142,johns_hopkins,/js/tasks/horizon/game_type_v3.xls,/js/tasks/horizon/media/johns_hopkins_instruct_slide_R1.csv,Horizon Task,3.2.5,MacIntel,60,0,horizon,Johns_Hopkins_R1.json,right,4004,0.832700000000159,,,,,,12,h6,0,LH,27,80,,R,0,75,75,75,1,30,60
,,,,,,,10,baseline,Johns_Hopkins_R1.json,2022-07-22_10h19.49.142,johns_hopkins,/js/tasks/horizon/game_type_v3.xls,/js/tasks/horizon/media/johns_hopkins_instruct_slide_R1.csv,Horizon Task,3.2.5,MacIntel,60,0,horizon,Johns_Hopkins_R1.json,right,4065,0.8393999999999551,,,,,,12,h6,1,LH,40,61,,R,0,76,76,76,1,30,60
,,,,,,,10,baseline,Johns_Hopkins_R1.json,2022-07-22_10h19.49.142,johns_hopkins,/js/tasks/horizon/game_type_v3.xls,/js/tasks/horizon/media/johns_hopkins_instruct_slide_R1.csv,Horizon Task,3.2.5,MacIntel,60,0,horizon,Johns_Hopkins_R1.json,left,4085,0.8505000000000109,,,,,,12,h6,2,LH,20,58,,L,0,77,77,77,1,30,60
,,,,,,,10,baseline,Johns_Hopkins_R1.json,2022-07-22_10h19.49.142,johns_hopkins,/js/tasks/horizon/game_type_v3.xls,/js/tasks/horizon/media/johns_hopkins_instruct_slide_R1.csv,Horizon Task,3.2.5,MacIntel,60,0,horizon,Johns_Hopkins_R1.json,left,4110,1.2000999999996793,,,,,,12,h6,3,LH,25,65,,L,0,78,78,78,1,30,60
,,,,,,,10,baseline,Johns_Hopkins_R1.json,2022-07-22_10h19.49.142,johns_hopkins,/js/tasks/horizon/game_type_v3.xls,/js/tasks/horizon/media/johns_hopkins_instruct_slide_R1.csv,Horizon Task,3.2.5,MacIntel,60,0,horizon,Johns_Hopkins_R1.json,right,4170,1.811699999999746,,,,,,12,h6,4,LH,34,60,,X,0,79,79,79,1,30,60
,,,,,,,10,baseline,Johns_Hopkins_R1.json,2022-07-22_10h19.49.142,johns_hopkins,/js/tasks/horizon/game_type_v3.xls,/js/tasks/horizon/media/johns_hopkins_instruct_slide_R1.csv,Horizon Task,3.2.5,MacIntel,60,0,horizon,Johns_Hopkins_R1.json,right,4223,1.7671999999997752,,,,,,12,h6,5,LH,33,53,,X,0,80,80,80,1,30,60
,,,,,,,10,baseline,Johns_Hopkins_R1.json,2022-07-22_10h19.49.142,johns_hopkins,/js/tasks/horizon/game_type_v3.xls,/js/tasks/horizon/media/johns_hopkins_instruct_slide_R1.csv,Horizon Task,3.2.5,MacIntel,60,0,horizon,Johns_Hopkins_R1.json,right,4296,1.6469999999999345,,,,,,12,h6,6,LH,33,73,,X,0,81,81,81,1,30,60
,,,,,,,10,baseline,Johns_Hopkins_R1.json,2022-07-22_10h19.49.142,johns_hopkins,/js/tasks/horizon/game_type_v3.xls,/js/tasks/horizon/media/johns_hopkins_instruct_slide_R1.csv,Horizon Task,3.2.5,MacIntel,60,0,horizon,Johns_Hopkins_R1.json,right,4341,1.8172000000001844,,,,,,12,h6,7,LH,18,45,,X,0,82,82,82,1,30,60
,,,,,,,10,baseline,Johns_Hopkins_R1.json,2022-07-22_10h19.49.142,johns_hopkins,/js/tasks/horizon/game_type_v3.xls,/js/tasks/horizon/media/johns_hopkins_instruct_slide_R1.csv,Horizon Task,3.2.5,MacIntel,60,0,horizon,Johns_Hopkins_R1.json,left,4378,1.3901000000001886,,,,,,12,h6,8,LH,37,68,,X,0,83,83,83,1,30,60
,,,,,,,10,baseline,Johns_Hopkins_R1.json,2022-07-22_10h19.49.142,johns_hopkins,/js/tasks/horizon/game_type_v3.xls,/js/tasks/horizon/media/johns_hopkins_instruct_slide_R1.csv,Horizon Task,3.2.5,MacIntel,60,0,horizon,Johns_Hopkins_R1.json,right,4438,2.852300000000355,,,,,,12,h6,9,LH,33,60,,X,0,84,84,84,1,30,60
,,,,,,,10,baseline,Johns_Hopkins_R1.json,2022-07-22_10h19.49.142,johns_hopkins,/js/tasks/horizon/game_type_v3.xls,/js/tasks/horizon/media/johns_hopkins_instruct_slide_R1.csv,Horizon Task,3.2.5,MacIntel,60,0,horizon,Johns_Hopkins_R1.json,right,4496,2.40090000000032,,,,,,13,h6,0,LH,58,58,,R,0,85,85,85,1,60,64
,,,,,,,10,baseline,Johns_Hopkins_R1.json,2022-07-22_10h19.49.142,johns_hopkins,/js/tasks/horizon/game_type_v3.xls,/js/tasks/horizon/media/johns_hopkins_instruct_slide_R1.csv,Horizon Task,3.2.5,MacIntel,60,0,horizon,Johns_Hopkins_R1.json,left,4555,0.5403999999998632,,,,,,13,h6,1,LH,59,60,,L,0,86,86,86,1,60,64
,,,,,,,10,baseline,Johns_Hopkins_R1.json,2022-07-22_10h19.49.142,johns_hopkins,/js/tasks/horizon/game_type_v3.xls,/js/tasks/horizon/media/johns_hopkins_instruct_slide_R1.csv,Horizon Task,3.2.5,MacIntel,60,0,horizon,Johns_Hopkins_R1.json,right,4619,1.048200000000179,,,,,,13,h6,2,LH,61,64,,R,0,87,87,87,1,60,64
,,,,,,,10,baseline,Johns_Hopkins_R1.json,2022-07-22_10h19.49.142,johns_hopkins,/js/tasks/horizon/game_type_v3.xls,/js/tasks/horizon/media/johns_hopkins_instruct_slide_R1.csv,Horizon Task,3.2.5,MacIntel,60,0,horizon,Johns_Hopkins_R1.json,right,4680,1.2026000000001886,,,,,,13,h6,3,LH,55,61,,R,0,88,88,88,1,60,64
,,,,,,,10,baseline,Johns_Hopkins_R1.json,2022-07-22_10h19.49.142,johns_hopkins,/js/tasks/horizon/game_type_v3.xls,/js/tasks/horizon/media/johns_hopkins_instruct_slide_R1.csv,Horizon Task,3.2.5,MacIntel,60,0,horizon,Johns_Hopkins_R1.json,left,4753,2.1423000000003185,,,,,,13,h6,4,LH,73,70,,X,0,89,89,89,1,60,64
,,,,,,,10,baseline,Johns_Hopkins_R1.json,2022-07-22_10h19.49.142,johns_hopkins,/js/tasks/horizon/game_type_v3.xls,/js/tasks/horizon/media/johns_hopkins_instruct_slide_R1.csv,Horizon Task,3.2.5,MacIntel,60,0,horizon,Johns_Hopkins_R1.json,left,4822,1.385200000000168,,,,,,13,h6,5,LH,69,59,,X,0,90,90,90,1,60,64
,,,,,,,10,baseline,Johns_Hopkins_R1.json,2022-07-22_10h19.49.142,johns_hopkins,/js/tasks/horizon/game_type_v3.xls,/js/tasks/horizon/media/johns_hopkins_instruct_slide_R1.csv,Horizon Task,3.2.5,MacIntel,60,0,horizon,Johns_Hopkins_R1.json,left,4880,1.2327000000001362,,,,,,13,h6,6,LH,58,75,,X,0,91,91,91,1,60,64
,,,,,,,10,baseline,Johns_Hopkins_R1.json,2022-07-22_10h19.49.142,johns_hopkins,/js/tasks/horizon/game_type_v3.xls,/js/tasks/horizon/media/johns_hopkins_instruct_slide_R1.csv,Horizon Task,3.2.5,MacIntel,60,0,horizon,Johns_Hopkins_R1.json,right,4948,2.487899999999854,,,,,,13,h6,7,LH,61,68,,X,0,92,92,92,1,60,64
,,,,,,,10,baseline,Johns_Hopkins_R1.json,2022-07-22_10h19.49.142,johns_hopkins,/js/tasks/horizon/game_type_v3.xls,/js/tasks/horizon/media/johns_hopkins_instruct_slide_R1.csv,Horizon Task,3.2.5,MacIntel,60,0,horizon,Johns_Hopkins_R1.json,right,5004,1.317899999999895,,,,,,13,h6,8,LH,58,56,,X,0,93,93,93,1,60,64
,,,,,,,10,baseline,Johns_Hopkins_R1.json,2022-07-22_10h19.49.142,johns_hopkins,/js/tasks/horizon/game_type_v3.xls,/js/tasks/horizon/media/johns_hopkins_instruct_slide_R1.csv,Horizon Task,3.2.5,MacIntel,60,0,horizon,Johns_Hopkins_R1.json,left,5066,1.5988999999998441,,,,,,13,h6,9,LH,62,79,,X,0,94,94,94,1,60,64
,,,,,,,10,baseline,Johns_Hopkins_R1.json,2022-07-22_10h19.49.142,johns_hopkins,/js/tasks/horizon/game_type_v3.xls,/js/tasks/horizon/media/johns_hopkins_instruct_slide_R1.csv,Horizon Task,3.2.5,MacIntel,60,0,horizon,Johns_Hopkins_R1.json,right,5105,0.632099999999582,,,,,,14,h6,0,LH,44,39,,R,0,95,95,95,1,40,48
,,,,,,,10,baseline,Johns_Hopkins_R1.json,2022-07-22_10h19.49.142,johns_hopkins,/js/tasks/horizon/game_type_v3.xls,/js/tasks/horizon/media/johns_hopkins_instruct_slide_R1.csv,Horizon Task,3.2.5,MacIntel,60,0,horizon,Johns_Hopkins_R1.json,right,5160,1.6002999999998337,,,,,,14,h6,1,LH,50,55,,R,0,96,96,96,1,40,48
,,,,,,,10,baseline,Johns_Hopkins_R1.json,2022-07-22_10h19.49.142,johns_hopkins,/js/tasks/horizon/game_type_v3.xls,/js/tasks/horizon/media/johns_hopkins_instruct_slide_R1.csv,Horizon Task,3.2.5,MacIntel,60,0,horizon,Johns_Hopkins_R1.json,left,5213,0.7937000000001717,,,,,,14,h6,2,LH,53,56,,L,0,97,97,97,1,40,48
,,,,,,,10,baseline,Johns_Hopkins_R1.json,2022-07-22_10h19.49.142,johns_hopkins,/js/tasks/horizon/game_type_v3.xls,/js/tasks/horizon/media/johns_hopkins_instruct_slide_R1.csv,Horizon Task,3.2.5,MacIntel,60,0,horizon,Johns_Hopkins_R1.json,right,5271,1.3827000000001135,,,,,,14,h6,3,LH,49,58,,R,0,98,98,98,1,40,48
,,,,,,,10,baseline,Johns_Hopkins_R1.json,2022-07-22_10h19.49.142,johns_hopkins,/js/tasks/horizon/game_type_v3.xls,/js/tasks/horizon/media/johns_hopkins_instruct_slide_R1.csv,Horizon Task,3.2.5,MacIntel,60,0,horizon,Johns_Hopkins_R1.json,left,5311,1.251699999999687,,,,,,14,h6,4,LH,40,44,,X,0,99,99,99,1,40,48
,,,,,,,10,baseline,Johns_Hopkins_R1.json,2022-07-22_10h19.49.142,johns_hopkins,/js/tasks/horizon/game_type_v3.xls,/js/tasks/horizon/media/johns_hopkins_instruct_slide_R1.csv,Horizon Task,3.2.5,MacIntel,60,0,horizon,Johns_Hopkins_R1.json,right,5368,2.0797999999998638,,,,,,14,h6,5,LH,43,57,,X,0,100,100,100,1,40,48
,,,,,,,10,baseline,Johns_Hopkins_R1.json,2022-07-22_10h19.49.142,johns_hopkins,/js/tasks/horizon/game_type_v3.xls,/js/tasks/horizon/media/johns_hopkins_instruct_slide_R1.csv,Horizon Task,3.2.5,MacIntel,60,0,horizon,Johns_Hopkins_R1.json,right,5411,1.7191000000001395,,,,,,14,h6,6,LH,39,43,,X,0,101,101,101,1,40,48
,,,,,,,10,baseline,Johns_Hopkins_R1.json,2022-07-22_10h19.49.142,johns_hopkins,/js/tasks/horizon/game_type_v3.xls,/js/tasks/horizon/media/johns_hopkins_instruct_slide_R1.csv,Horizon Task,3.2.5,MacIntel,60,0,horizon,Johns_Hopkins_R1.json,left,5454,1.3697000000001935,,,,,,14,h6,7,LH,43,56,,X,0,102,102,102,1,40,48
,,,,,,,10,baseline,Johns_Hopkins_R1.json,2022-07-22_10h19.49.142,johns_hopkins,/js/tasks/horizon/game_type_v3.xls,/js/tasks/horizon/media/johns_hopkins_instruct_slide_R1.csv,Horizon Task,3.2.5,MacIntel,60,0,horizon,Johns_Hopkins_R1.json,left,5477,1.2181000000000495,,,,,,14,h6,8,LH,23,56,,X,0,103,103,103,1,40,48
,,,,,,,10,baseline,Johns_Hopkins_R1.json,2022-07-22_10h19.49.142,johns_hopkins,/js/tasks/horizon/game_type_v3.xls,/js/tasks/horizon/media/johns_hopkins_instruct_slide_R1.csv,Horizon Task,3.2.5,MacIntel,60,0,horizon,Johns_Hopkins_R1.json,right,5526,2.0373999999998205,,,,,,14,h6,9,LH,42,49,,X,0,104,104,104,1,40,48
,,,,,,,10,baseline,Johns_Hopkins_R1.json,2022-07-22_10h19.49.142,johns_hopkins,/js/tasks/horizon/game_type_v3.xls,/js/tasks/horizon/media/johns_hopkins_instruct_slide_R1.csv,Horizon Task,3.2.5,MacIntel,60,0,horizon,Johns_Hopkins_R1.json,left,5591,0.9834999999999354,,,,,,15,h1,0,HL,65,59,,L,0,105,105,105,1,68,60
,,,,,,,10,baseline,Johns_Hopkins_R1.json,2022-07-22_10h19.49.142,johns_hopkins,/js/tasks/horizon/game_type_v3.xls,/js/tasks/horizon/media/johns_hopkins_instruct_slide_R1.csv,Horizon Task,3.2.5,MacIntel,60,0,horizon,Johns_Hopkins_R1.json,right,5652,1.2479999999999336,,,,,,15,h1,1,HL,57,61,,R,0,106,106,106,1,68,60
,,,,,,,10,baseline,Johns_Hopkins_R1.json,2022-07-22_10h19.49.142,johns_hopkins,/js/tasks/horizon/game_type_v3.xls,/js/tasks/horizon/media/johns_hopkins_instruct_slide_R1.csv,Horizon Task,3.2.5,MacIntel,60,0,horizon,Johns_Hopkins_R1.json,left,5706,1.5377000000002,,,,,,15,h1,2,HL,54,48,,L,0,107,107,107,1,68,60
,,,,,,,10,baseline,Johns_Hopkins_R1.json,2022-07-22_10h19.49.142,johns_hopkins,/js/tasks/horizon/game_type_v3.xls,/js/tasks/horizon/media/johns_hopkins_instruct_slide_R1.csv,Horizon Task,3.2.5,MacIntel,60,0,horizon,Johns_Hopkins_R1.json,left,5776,1.3384999999999536,,,,,,15,h1,3,HL,70,58,,L,0,108,108,108,1,68,60
,,,,,,,10,baseline,Johns_Hopkins_R1.json,2022-07-22_10h19.49.142,johns_hopkins,/js/tasks/horizon/game_type_v3.xls,/js/tasks/horizon/media/johns_hopkins_instruct_slide_R1.csv,Horizon Task,3.2.5,MacIntel,60,0,horizon,Johns_Hopkins_R1.json,left,5845,2.1528000000002976,,,,,,15,h1,4,HL,69,51,,X,0,109,109,109,1,68,60
,,,,,,,10,baseline,Johns_Hopkins_R1.json,2022-07-22_10h19.49.142,johns_hopkins,/js/tasks/horizon/game_type_v3.xls,/js/tasks/horizon/media/johns_hopkins_instruct_slide_R1.csv,Horizon Task,3.2.5,MacIntel,60,0,horizon,Johns_Hopkins_R1.json,left,5917,0.9600000000000364,,,,,,16,h6,0,LH,72,71,,L,0,110,110,110,1,60,64
,,,,,,,10,baseline,Johns_Hopkins_R1.json,2022-07-22_10h19.49.142,johns_hopkins,/js/tasks/horizon/game_type_v3.xls,/js/tasks/horizon/media/johns_hopkins_instruct_slide_R1.csv,Horizon Task,3.2.5,MacIntel,60,0,horizon,Johns_Hopkins_R1.json,left,5982,0.7182000000001381,,,,,,16,h6,1,LH,65,87,,L,0,111,111,111,1,60,64
,,,,,,,10,baseline,Johns_Hopkins_R1.json,2022-07-22_10h19.49.142,johns_hopkins,/js/tasks/horizon/game_type_v3.xls,/js/tasks/horizon/media/johns_hopkins_instruct_slide_R1.csv,Horizon Task,3.2.5,MacIntel,60,0,horizon,Johns_Hopkins_R1.json,right,6052,0.6202999999998156,,,,,,16,h6,2,LH,61,70,,R,0,112,112,112,1,60,64
,,,,,,,10,baseline,Johns_Hopkins_R1.json,2022-07-22_10h19.49.142,johns_hopkins,/js/tasks/horizon/game_type_v3.xls,/js/tasks/horizon/media/johns_hopkins_instruct_slide_R1.csv,Horizon Task,3.2.5,MacIntel,60,0,horizon,Johns_Hopkins_R1.json,right,6128,1.0440999999996166,,,,,,16,h6,3,LH,61,76,,R,0,113,113,113,1,60,64
,,,,,,,10,baseline,Johns_Hopkins_R1.json,2022-07-22_10h19.49.142,johns_hopkins,/js/tasks/horizon/game_type_v3.xls,/js/tasks/horizon/media/johns_hopkins_instruct_slide_R1.csv,Horizon Task,3.2.5,MacIntel,60,0,horizon,Johns_Hopkins_R1.json,right,6194,1.542299999999841,,,,,,16,h6,4,LH,71,66,,X,0,114,114,114,1,60,64
,,,,,,,10,baseline,Johns_Hopkins_R1.json,2022-07-22_10h19.49.142,johns_hopkins,/js/tasks/horizon/game_type_v3.xls,/js/tasks/horizon/media/johns_hopkins_instruct_slide_R1.csv,Horizon Task,3.2.5,MacIntel,60,0,horizon,Johns_Hopkins_R1.json,left,6243,2.1889999999999645,,,,,,16,h6,5,LH,49,59,,X,0,115,115,115,1,60,64
,,,,,,,10,baseline,Johns_Hopkins_R1.json,2022-07-22_10h19.49.142,johns_hopkins,/js/tasks/horizon/game_type_v3.xls,/js/tasks/horizon/media/johns_hopkins_instruct_slide_R1.csv,Horizon Task,3.2.5,MacIntel,60,0,horizon,Johns_Hopkins_R1.json,right,6293,1.2545000000000073,,,,,,16,h6,6,LH,65,50,,X,0,116,116,116,1,60,64
,,,,,,,10,baseline,Johns_Hopkins_R1.json,2022-07-22_10h19.49.142,johns_hopkins,/js/tasks/horizon/game_type_v3.xls,/js/tasks/horizon/media/johns_hopkins_instruct_slide_R1.csv,Horizon Task,3.2.5,MacIntel,60,0,horizon,Johns_Hopkins_R1.json,right,6369,1.8007999999998674,,,,,,16,h6,7,LH,56,76,,X,0,117,117,117,1,60,64
,,,,,,,10,baseline,Johns_Hopkins_R1.json,2022-07-22_10h19.49.142,johns_hopkins,/js/tasks/horizon/game_type_v3.xls,/js/tasks/horizon/media/johns_hopkins_instruct_slide_R1.csv,Horizon Task,3.2.5,MacIntel,60,0,horizon,Johns_Hopkins_R1.json,right,6428,1.9856000000000904,,,,,,16,h6,8,LH,58,59,,X,0,118,118,118,1,60,64
,,,,,,,10,baseline,Johns_Hopkins_R1.json,2022-07-22_10h19.49.142,johns_hopkins,/js/tasks/horizon/game_type_v3.xls,/js/tasks/horizon/media/johns_hopkins_instruct_slide_R1.csv,Horizon Task,3.2.5,MacIntel,60,0,horizon,Johns_Hopkins_R1.json,right,6492,2.096199999999726,,,,,,16,h6,9,LH,71,64,,X,0,119,119,119,1,60,64
,,,,,,,10,baseline,Johns_Hopkins_R1.json,2022-07-22_10h19.49.142,johns_hopkins,/js/tasks/horizon/game_type_v3.xls,/js/tasks/horizon/media/johns_hopkins_instruct_slide_R1.csv,Horizon Task,3.2.5,MacIntel,60,0,horizon,Johns_Hopkins_R1.json,left,6535,0.5662999999998419,,,,,,17,h6,0,LH,43,58,,L,0,120,120,120,1,40,52
,,,,,,,10,baseline,Johns_Hopkins_R1.json,2022-07-22_10h19.49.142,johns_hopkins,/js/tasks/horizon/game_type_v3.xls,/js/tasks/horizon/media/johns_hopkins_instruct_slide_R1.csv,Horizon Task,3.2.5,MacIntel,60,0,horizon,Johns_Hopkins_R1.json,right,6574,1.9001000000001795,,,,,,17,h6,1,LH,32,39,,R,0,121,121,121,1,40,52
,,,,,,,10,baseline,Johns_Hopkins_R1.json,2022-07-22_10h19.49.142,johns_hopkins,/js/tasks/horizon/game_type_v3.xls,/js/tasks/horizon/media/johns_hopkins_instruct_slide_R1.csv,Horizon Task,3.2.5,MacIntel,60,0,horizon,Johns_Hopkins_R1.json,left,6619,1.3527999999997746,,,,,,17,h6,2,LH,45,53,,L,0,122,122,122,1,40,52
,,,,,,,10,baseline,Johns_Hopkins_R1.json,2022-07-22_10h19.49.142,johns_hopkins,/js/tasks/horizon/game_type_v3.xls,/js/tasks/horizon/media/johns_hopkins_instruct_slide_R1.csv,Horizon Task,3.2.5,MacIntel,60,0,horizon,Johns_Hopkins_R1.json,right,6679,1.5272000000002208,,,,,,17,h6,3,LH,62,60,,R,0,123,123,123,1,40,52
,,,,,,,10,baseline,Johns_Hopkins_R1.json,2022-07-22_10h19.49.142,johns_hopkins,/js/tasks/horizon/game_type_v3.xls,/js/tasks/horizon/media/johns_hopkins_instruct_slide_R1.csv,Horizon Task,3.2.5,MacIntel,60,0,horizon,Johns_Hopkins_R1.json,right,6733,2.8018999999999323,,,,,,17,h6,4,LH,32,54,,X,0,124,124,124,1,40,52
,,,,,,,10,baseline,Johns_Hopkins_R1.json,2022-07-22_10h19.49.142,johns_hopkins,/js/tasks/horizon/game_type_v3.xls,/js/tasks/horizon/media/johns_hopkins_instruct_slide_R1.csv,Horizon Task,3.2.5,MacIntel,60,0,horizon,Johns_Hopkins_R1.json,right,6784,1.61850000000004,,,,,,17,h6,5,LH,52,51,,X,0,125,125,125,1,40,52
,,,,,,,10,baseline,Johns_Hopkins_R1.json,2022-07-22_10h19.49.142,johns_hopkins,/js/tasks/horizon/game_type_v3.xls,/js/tasks/horizon/media/johns_hopkins_instruct_slide_R1.csv,Horizon Task,3.2.5,MacIntel,60,0,horizon,Johns_Hopkins_R1.json,right,6838,1.47950000000003,,,,,,17,h6,6,LH,46,54,,X,0,126,126,126,1,40,52
,,,,,,,10,baseline,Johns_Hopkins_R1.json,2022-07-22_10h19.49.142,johns_hopkins,/js/tasks/horizon/game_type_v3.xls,/js/tasks/horizon/media/johns_hopkins_instruct_slide_R1.csv,Horizon Task,3.2.5,MacIntel,60,0,horizon,Johns_Hopkins_R1.json,right,6896,1.916199999999776,,,,,,17,h6,7,LH,55,58,,X,0,127,127,127,1,40,52
,,,,,,,10,baseline,Johns_Hopkins_R1.json,2022-07-22_10h19.49.142,johns_hopkins,/js/tasks/horizon/game_type_v3.xls,/js/tasks/horizon/media/johns_hopkins_instruct_slide_R1.csv,Horizon Task,3.2.5,MacIntel,60,0,horizon,Johns_Hopkins_R1.json,left,6943,2.0187000000001944,,,,,,17,h6,8,LH,47,61,,X,0,128,128,128,1,40,52
,,,,,,,10,baseline,Johns_Hopkins_R1.json,2022-07-22_10h19.49.142,johns_hopkins,/js/tasks/horizon/game_type_v3.xls,/js/tasks/horizon/media/johns_hopkins_instruct_slide_R1.csv,Horizon Task,3.2.5,MacIntel,60,0,horizon,Johns_Hopkins_R1.json,left,6991,1.9004999999999654,,,,,,17,h6,9,LH,48,45,,X,0,129,129,129,1,40,52
,,,,,,,10,baseline,Johns_Hopkins_R1.json,2022-07-22_10h19.49.142,johns_hopkins,/js/tasks/horizon/game_type_v3.xls,/js/tasks/horizon/media/johns_hopkins_instruct_slide_R1.csv,Horizon Task,3.2.5,MacIntel,60,0,horizon,Johns_Hopkins_R1.json,left,7019,1.9832000000001244,,,,,,18,h6,0,HL,28,15,,L,0,130,130,130,1,40,20
,,,,,,,10,baseline,Johns_Hopkins_R1.json,2022-07-22_10h19.49.142,johns_hopkins,/js/tasks/horizon/game_type_v3.xls,/js/tasks/horizon/media/johns_hopkins_instruct_slide_R1.csv,Horizon Task,3.2.5,MacIntel,60,0,horizon,Johns_Hopkins_R1.json,left,7072,2.1722000000002026,,,,,,18,h6,1,HL,53,16,,L,0,131,131,131,1,40,20
,,,,,,,10,baseline,Johns_Hopkins_R1.json,2022-07-22_10h19.49.142,johns_hopkins,/js/tasks/horizon/game_type_v3.xls,/js/tasks/horizon/media/johns_hopkins_instruct_slide_R1.csv,Horizon Task,3.2.5,MacIntel,60,0,horizon,Johns_Hopkins_R1.json,left,7127,0.9487000000002581,,,,,,18,h6,2,HL,55,28,,L,0,132,132,132,1,40,20
,,,,,,,10,baseline,Johns_Hopkins_R1.json,2022-07-22_10h19.49.142,johns_hopkins,/js/tasks/horizon/game_type_v3.xls,/js/tasks/horizon/media/johns_hopkins_instruct_slide_R1.csv,Horizon Task,3.2.5,MacIntel,60,0,horizon,Johns_Hopkins_R1.json,right,7147,0.7661999999996851,,,,,,18,h6,3,HL,53,20,,R,0,133,133,133,1,40,20
,,,,,,,10,baseline,Johns_Hopkins_R1.json,2022-07-22_10h19.49.142,johns_hopkins,/js/tasks/horizon/game_type_v3.xls,/js/tasks/horizon/media/johns_hopkins_instruct_slide_R1.csv,Horizon Task,3.2.5,MacIntel,60,0,horizon,Johns_Hopkins_R1.json,left,7200,1.5641000000000531,,,,,,18,h6,4,HL,53,3,,X,0,134,134,134,1,40,20
,,,,,,,10,baseline,Johns_Hopkins_R1.json,2022-07-22_10h19.49.142,johns_hopkins,/js/tasks/horizon/game_type_v3.xls,/js/tasks/horizon/media/johns_hopkins_instruct_slide_R1.csv,Horizon Task,3.2.5,MacIntel,60,0,horizon,Johns_Hopkins_R1.json,right,7215,3.0510000000000446,,,,,,18,h6,5,HL,40,15,,X,0,135,135,135,1,40,20
,,,,,,,10,baseline,Johns_Hopkins_R1.json,2022-07-22_10h19.49.142,johns_hopkins,/js/tasks/horizon/game_type_v3.xls,/js/tasks/horizon/media/johns_hopkins_instruct_slide_R1.csv,Horizon Task,3.2.5,MacIntel,60,0,horizon,Johns_Hopkins_R1.json,left,7260,0.9184999999999945,,,,,,18,h6,6,HL,45,4,,X,0,136,136,136,1,40,20
,,,,,,,10,baseline,Johns_Hopkins_R1.json,2022-07-22_10h19.49.142,johns_hopkins,/js/tasks/horizon/game_type_v3.xls,/js/tasks/horizon/media/johns_hopkins_instruct_slide_R1.csv,Horizon Task,3.2.5,MacIntel,60,0,horizon,Johns_Hopkins_R1.json,left,7301,1.2991000000000668,,,,,,18,h6,7,HL,41,28,,X,0,137,137,137,1,40,20
,,,,,,,10,baseline,Johns_Hopkins_R1.json,2022-07-22_10h19.49.142,johns_hopkins,/js/tasks/horizon/game_type_v3.xls,/js/tasks/horizon/media/johns_hopkins_instruct_slide_R1.csv,Horizon Task,3.2.5,MacIntel,60,0,horizon,Johns_Hopkins_R1.json,left,7344,1.9659000000002607,,,,,,18,h6,8,HL,43,25,,X,0,138,138,138,1,40,20
,,,,,,,10,baseline,Johns_Hopkins_R1.json,2022-07-22_10h19.49.142,johns_hopkins,/js/tasks/horizon/game_type_v3.xls,/js/tasks/horizon/media/johns_hopkins_instruct_slide_R1.csv,Horizon Task,3.2.5,MacIntel,60,0,horizon,Johns_Hopkins_R1.json,left,7391,1.6173999999998614,,,,,,18,h6,9,HL,47,26,,X,0,139,139,139,1,40,20
,,,,,,,10,baseline,Johns_Hopkins_R1.json,2022-07-22_10h19.49.142,johns_hopkins,/js/tasks/horizon/game_type_v3.xls,/js/tasks/horizon/media/johns_hopkins_instruct_slide_R1.csv,Horizon Task,3.2.5,MacIntel,60,0,horizon,Johns_Hopkins_R1.json,left,7457,0.8788999999999305,,,,,,19,h1,0,LH,66,43,,L,0,140,140,140,1,56,60
,,,,,,,10,baseline,Johns_Hopkins_R1.json,2022-07-22_10h19.49.142,johns_hopkins,/js/tasks/horizon/game_type_v3.xls,/js/tasks/horizon/media/johns_hopkins_instruct_slide_R1.csv,Horizon Task,3.2.5,MacIntel,60,0,horizon,Johns_Hopkins_R1.json,right,7524,0.8503999999999223,,,,,,19,h1,1,LH,33,67,,R,0,141,141,141,1,56,60
,,,,,,,10,baseline,Johns_Hopkins_R1.json,2022-07-22_10h19.49.142,johns_hopkins,/js/tasks/horizon/game_type_v3.xls,/js/tasks/horizon/media/johns_hopkins_instruct_slide_R1.csv,Horizon Task,3.2.5,MacIntel,60,0,horizon,Johns_Hopkins_R1.json,left,7566,1.02370000000019,,,,,,19,h1,2,LH,42,59,,L,0,142,142,142,1,56,60
,,,,,,,10,baseline,Johns_Hopkins_R1.json,2022-07-22_10h19.49.142,johns_hopkins,/js/tasks/horizon/game_type_v3.xls,/js/tasks/horizon/media/johns_hopkins_instruct_slide_R1.csv,Horizon Task,3.2.5,MacIntel,60,0,horizon,Johns_Hopkins_R1.json,right,7630,2.319799999999759,,,,,,19,h1,3,LH,55,64,,R,0,143,143,143,1,56,60
,,,,,,,10,baseline,Johns_Hopkins_R1.json,2022-07-22_10h19.49.142,johns_hopkins,/js/tasks/horizon/game_type_v3.xls,/js/tasks/horizon/media/johns_hopkins_instruct_slide_R1.csv,Horizon Task,3.2.5,MacIntel,60,0,horizon,Johns_Hopkins_R1.json,right,7688,3.3985000000000127,,,,,,19,h1,4,LH,47,58,,X,0,144,144,144,1,56,60
,,,,,,,10,baseline,Johns_Hopkins_R1.json,2022-07-22_10h19.49.142,johns_hopkins,/js/tasks/horizon/game_type_v3.xls,/js/tasks/horizon/media/johns_hopkins_instruct_slide_R1.csv,Horizon Task,3.2.5,MacIntel,60,0,horizon,Johns_Hopkins_R1.json,left,7713,0.7533000000003085,,,,,,20,h1,0,LH,25,23,,L,0,145,145,145,1,32,40
,,,,,,,10,baseline,Johns_Hopkins_R1.json,2022-07-22_10h19.49.142,johns_hopkins,/js/tasks/horizon/game_type_v3.xls,/js/tasks/horizon/media/johns_hopkins_instruct_slide_R1.csv,Horizon Task,3.2.5,MacIntel,60,0,horizon,Johns_Hopkins_R1.json,left,7742,0.7853000000002339,,,,,,20,h1,1,LH,29,57,,L,0,146,146,146,1,32,40
,,,,,,,10,baseline,Johns_Hopkins_R1.json,2022-07-22_10h19.49.142,johns_hopkins,/js/tasks/horizon/game_type_v3.xls,/js/tasks/horizon/media/johns_hopkins_instruct_slide_R1.csv,Horizon Task,3.2.5,MacIntel,60,0,horizon,Johns_Hopkins_R1.json,right,7780,1.5852999999998474,,,,,,20,h1,2,LH,44,38,,R,0,147,147,147,1,32,40
,,,,,,,10,baseline,Johns_Hopkins_R1.json,2022-07-22_10h19.49.142,johns_hopkins,/js/tasks/horizon/game_type_v3.xls,/js/tasks/horizon/media/johns_hopkins_instruct_slide_R1.csv,Horizon Task,3.2.5,MacIntel,60,0,horizon,Johns_Hopkins_R1.json,left,7816,1.1485000000000127,,,,,,20,h1,3,LH,36,31,,L,0,148,148,148,1,32,40
,,,,,,,10,baseline,Johns_Hopkins_R1.json,2022-07-22_10h19.49.142,johns_hopkins,/js/tasks/horizon/game_type_v3.xls,/js/tasks/horizon/media/johns_hopkins_instruct_slide_R1.csv,Horizon Task,3.2.5,MacIntel,60,0,horizon,Johns_Hopkins_R1.json,right,7864,2.0662000000000944,,,,,,20,h1,4,LH,39,48,,X,0,149,149,149,1,32,40
,,,,,,,10,baseline,Johns_Hopkins_R1.json,2022-07-22_10h19.49.142,johns_hopkins,/js/tasks/horizon/game_type_v3.xls,/js/tasks/horizon/media/johns_hopkins_instruct_slide_R1.csv,Horizon Task,3.2.5,MacIntel,60,0,horizon,Johns_Hopkins_R1.json,right,7899,0.8691000000001168,,,,,,21,h6,0,HL,43,35,,R,0,150,150,150,1,40,28
,,,,,,,10,baseline,Johns_Hopkins_R1.json,2022-07-22_10h19.49.142,johns_hopkins,/js/tasks/horizon/game_type_v3.xls,/js/tasks/horizon/media/johns_hopkins_instruct_slide_R1.csv,Horizon Task,3.2.5,MacIntel,60,0,horizon,Johns_Hopkins_R1.json,right,7920,0.6011000000000877,,,,,,21,h6,1,HL,31,21,,R,0,151,151,151,1,40,28
,,,,,,,10,baseline,Johns_Hopkins_R1.json,2022-07-22_10h19.49.142,johns_hopkins,/js/tasks/horizon/game_type_v3.xls,/js/tasks/horizon/media/johns_hopkins_instruct_slide_R1.csv,Horizon Task,3.2.5,MacIntel,60,0,horizon,Johns_Hopkins_R1.json,right,7948,0.4835000000000491,,,,,,21,h6,2,HL,40,28,,R,0,152,152,152,1,40,28
,,,,,,,10,baseline,Johns_Hopkins_R1.json,2022-07-22_10h19.49.142,johns_hopkins,/js/tasks/horizon/game_type_v3.xls,/js/tasks/horizon/media/johns_hopkins_instruct_slide_R1.csv,Horizon Task,3.2.5,MacIntel,60,0,horizon,Johns_Hopkins_R1.json,left,7984,0.449100000000044,,,,,,21,h6,3,HL,36,23,,L,0,153,153,153,1,40,28
,,,,,,,10,baseline,Johns_Hopkins_R1.json,2022-07-22_10h19.49.142,johns_hopkins,/js/tasks/horizon/game_type_v3.xls,/js/tasks/horizon/media/johns_hopkins_instruct_slide_R1.csv,Horizon Task,3.2.5,MacIntel,60,0,horizon,Johns_Hopkins_R1.json,left,8024,2.1847000000001344,,,,,,21,h6,4,HL,40,27,,X,0,154,154,154,1,40,28
,,,,,,,10,baseline,Johns_Hopkins_R1.json,2022-07-22_10h19.49.142,johns_hopkins,/js/tasks/horizon/game_type_v3.xls,/js/tasks/horizon/media/johns_hopkins_instruct_slide_R1.csv,Horizon Task,3.2.5,MacIntel,60,0,horizon,Johns_Hopkins_R1.json,left,8070,1.5839000000003125,,,,,,21,h6,5,HL,46,20,,X,0,155,155,155,1,40,28
,,,,,,,10,baseline,Johns_Hopkins_R1.json,2022-07-22_10h19.49.142,johns_hopkins,/js/tasks/horizon/game_type_v3.xls,/js/tasks/horizon/media/johns_hopkins_instruct_slide_R1.csv,Horizon Task,3.2.5,MacIntel,60,0,horizon,Johns_Hopkins_R1.json,left,8120,1.179600000000164,,,,,,21,h6,6,HL,50,21,,X,0,156,156,156,1,40,28
,,,,,,,10,baseline,Johns_Hopkins_R1.json,2022-07-22_10h19.49.142,johns_hopkins,/js/tasks/horizon/game_type_v3.xls,/js/tasks/horizon/media/johns_hopkins_instruct_slide_R1.csv,Horizon Task,3.2.5,MacIntel,60,0,horizon,Johns_Hopkins_R1.json,left,8161,1.0832000000001472,,,,,,21,h6,7,HL,41,37,,X,0,157,157,157,1,40,28
,,,,,,,10,baseline,Johns_Hopkins_R1.json,2022-07-22_10h19.49.142,johns_hopkins,/js/tasks/horizon/game_type_v3.xls,/js/tasks/horizon/media/johns_hopkins_instruct_slide_R1.csv,Horizon Task,3.2.5,MacIntel,60,0,horizon,Johns_Hopkins_R1.json,right,8180,2.6844999999999573,,,,,,21,h6,8,HL,44,19,,X,0,158,158,158,1,40,28
,,,,,,,10,baseline,Johns_Hopkins_R1.json,2022-07-22_10h19.49.142,johns_hopkins,/js/tasks/horizon/game_type_v3.xls,/js/tasks/horizon/media/johns_hopkins_instruct_slide_R1.csv,Horizon Task,3.2.5,MacIntel,60,0,horizon,Johns_Hopkins_R1.json,left,8217,0.7521999999997888,,,,,,21,h6,9,HL,37,25,,X,0,159,159,159,1,40,28
,,,,,,,10,baseline,Johns_Hopkins_R1.json,2022-07-22_10h19.49.142,johns_hopkins,/js/tasks/horizon/game_type_v3.xls,/js/tasks/horizon/media/johns_hopkins_instruct_slide_R1.csv,Horizon Task,3.2.5,MacIntel,60,0,horizon,Johns_Hopkins_R1.json,left,8249,1.9667999999998074,,,,,,22,h1,0,LH,32,76,,L,0,160,160,160,1,40,60
,,,,,,,10,baseline,Johns_Hopkins_R1.json,2022-07-22_10h19.49.142,johns_hopkins,/js/tasks/horizon/game_type_v3.xls,/js/tasks/horizon/media/johns_hopkins_instruct_slide_R1.csv,Horizon Task,3.2.5,MacIntel,60,0,horizon,Johns_Hopkins_R1.json,right,8314,0.4836000000001377,,,,,,22,h1,1,LH,37,65,,R,0,161,161,161,1,40,60
,,,,,,,10,baseline,Johns_Hopkins_R1.json,2022-07-22_10h19.49.142,johns_hopkins,/js/tasks/horizon/game_type_v3.xls,/js/tasks/horizon/media/johns_hopkins_instruct_slide_R1.csv,Horizon Task,3.2.5,MacIntel,60,0,horizon,Johns_Hopkins_R1.json,left,8360,0.367799999999761,,,,,,22,h1,2,LH,46,68,,L,0,162,162,162,1,40,60
,,,,,,,10,baseline,Johns_Hopkins_R1.json,2022-07-22_10h19.49.142,johns_hopkins,/js/tasks/horizon/game_type_v3.xls,/js/tasks/horizon/media/johns_hopkins_instruct_slide_R1.csv,Horizon Task,3.2.5,MacIntel,60,0,horizon,Johns_Hopkins_R1.json,right,8429,0.6302000000001726,,,,,,22,h1,3,LH,37,69,,R,0,163,163,163,1,40,60
,,,,,,,10,baseline,Johns_Hopkins_R1.json,2022-07-22_10h19.49.142,johns_hopkins,/js/tasks/horizon/game_type_v3.xls,/js/tasks/horizon/media/johns_hopkins_instruct_slide_R1.csv,Horizon Task,3.2.5,MacIntel,60,0,horizon,Johns_Hopkins_R1.json,right,8482,1.658100000000104,,,,,,22,h1,4,LH,40,53,,X,0,164,164,164,1,40,60
,,,,,,,10,baseline,Johns_Hopkins_R1.json,2022-07-22_10h19.49.142,johns_hopkins,/js/tasks/horizon/game_type_v3.xls,/js/tasks/horizon/media/johns_hopkins_instruct_slide_R1.csv,Horizon Task,3.2.5,MacIntel,60,0,horizon,Johns_Hopkins_R1.json,left,8531,0.9301000000001522,,,,,,23,h6,0,HL,49,36,,L,0,165,165,165,1,60,40
,,,,,,,10,baseline,Johns_Hopkins_R1.json,2022-07-22_10h19.49.142,johns_hopkins,/js/tasks/horizon/game_type_v3.xls,/js/tasks/horizon/media/johns_hopkins_instruct_slide_R1.csv,Horizon Task,3.2.5,MacIntel,60,0,horizon,Johns_Hopkins_R1.json,right,8574,0.9543999999998505,,,,,,23,h6,1,HL,68,43,,R,0,166,166,166,1,60,40
,,,,,,,10,baseline,Johns_Hopkins_R1.json,2022-07-22_10h19.49.142,johns_hopkins,/js/tasks/horizon/game_type_v3.xls,/js/tasks/horizon/media/johns_hopkins_instruct_slide_R1.csv,Horizon Task,3.2.5,MacIntel,60,0,horizon,Johns_Hopkins_R1.json,left,8629,0.7708000000003494,,,,,,23,h6,2,HL,55,40,,L,0,167,167,167,1,60,40
,,,,,,,10,baseline,Johns_Hopkins_R1.json,2022-07-22_10h19.49.142,johns_hopkins,/js/tasks/horizon/game_type_v3.xls,/js/tasks/horizon/media/johns_hopkins_instruct_slide_R1.csv,Horizon Task,3.2.5,MacIntel,60,0,horizon,Johns_Hopkins_R1.json,right,8670,0.8706999999997151,,,,,,23,h6,3,HL,67,41,,R,0,168,168,168,1,60,40
,,,,,,,10,baseline,Johns_Hopkins_R1.json,2022-07-22_10h19.49.142,johns_hopkins,/js/tasks/horizon/game_type_v3.xls,/js/tasks/horizon/media/johns_hopkins_instruct_slide_R1.csv,Horizon Task,3.2.5,MacIntel,60,0,horizon,Johns_Hopkins_R1.json,left,8719,2.0391999999997097,,,,,,23,h6,4,HL,49,34,,X,0,169,169,169,1,60,40
,,,,,,,10,baseline,Johns_Hopkins_R1.json,2022-07-22_10h19.49.142,johns_hopkins,/js/tasks/horizon/game_type_v3.xls,/js/tasks/horizon/media/johns_hopkins_instruct_slide_R1.csv,Horizon Task,3.2.5,MacIntel,60,0,horizon,Johns_Hopkins_R1.json,left,8776,1.5357000000001335,,,,,,23,h6,5,HL,57,35,,X,0,170,170,170,1,60,40
,,,,,,,10,baseline,Johns_Hopkins_R1.json,2022-07-22_10h19.49.142,johns_hopkins,/js/tasks/horizon/game_type_v3.xls,/js/tasks/horizon/media/johns_hopkins_instruct_slide_R1.csv,Horizon Task,3.2.5,MacIntel,60,0,horizon,Johns_Hopkins_R1.json,left,8831,1.5621000000001004,,,,,,23,h6,6,HL,55,50,,X,0,171,171,171,1,60,40
,,,,,,,10,baseline,Johns_Hopkins_R1.json,2022-07-22_10h19.49.142,johns_hopkins,/js/tasks/horizon/game_type_v3.xls,/js/tasks/horizon/media/johns_hopkins_instruct_slide_R1.csv,Horizon Task,3.2.5,MacIntel,60,0,horizon,Johns_Hopkins_R1.json,left,8885,1.4508999999999332,,,,,,23,h6,7,HL,54,28,,X,0,172,172,172,1,60,40
,,,,,,,10,baseline,Johns_Hopkins_R1.json,2022-07-22_10h19.49.142,johns_hopkins,/js/tasks/horizon/game_type_v3.xls,/js/tasks/horizon/media/johns_hopkins_instruct_slide_R1.csv,Horizon Task,3.2.5,MacIntel,60,0,horizon,Johns_Hopkins_R1.json,left,8951,1.4148000000002412,,,,,,23,h6,8,HL,66,35,,X,0,173,173,173,1,60,40
,,,,,,,10,baseline,Johns_Hopkins_R1.json,2022-07-22_10h19.49.142,johns_hopkins,/js/tasks/horizon/game_type_v3.xls,/js/tasks/horizon/media/johns_hopkins_instruct_slide_R1.csv,Horizon Task,3.2.5,MacIntel,60,0,horizon,Johns_Hopkins_R1.json,left,9005,1.198599999999601,,,,,,23,h6,9,HL,54,40,,X,0,174,174,174,1,60,40
,,,,,,,10,baseline,Johns_Hopkins_R1.json,2022-07-22_10h19.49.142,johns_hopkins,/js/tasks/horizon/game_type_v3.xls,/js/tasks/horizon/media/johns_hopkins_instruct_slide_R1.csv,Horizon Task,3.2.5,MacIntel,60,0,horizon,Johns_Hopkins_R1.json,left,9045,1.525600000000054,,,,,,24,h6,0,LH,40,38,,L,0,175,175,175,1,40,48
,,,,,,,10,baseline,Johns_Hopkins_R1.json,2022-07-22_10h19.49.142,johns_hopkins,/js/tasks/horizon/game_type_v3.xls,/js/tasks/horizon/media/johns_hopkins_instruct_slide_R1.csv,Horizon Task,3.2.5,MacIntel,60,0,horizon,Johns_Hopkins_R1.json,left,9082,1.5343000000002576,,,,,,24,h6,1,LH,37,44,,L,0,176,176,176,1,40,48
,,,,,,,10,baseline,Johns_Hopkins_R1.json,2022-07-22_10h19.49.142,johns_hopkins,/js/tasks/horizon/game_type_v3.xls,/js/tasks/horizon/media/johns_hopkins_instruct_slide_R1.csv,Horizon Task,3.2.5,MacIntel,60,0,horizon,Johns_Hopkins_R1.json,right,9126,0.47129999999981464,,,,,,24,h6,2,LH,60,44,,R,0,177,177,177,1,40,48
,,,,,,,10,baseline,Johns_Hopkins_R1.json,2022-07-22_10h19.49.142,johns_hopkins,/js/tasks/horizon/game_type_v3.xls,/js/tasks/horizon/media/johns_hopkins_instruct_slide_R1.csv,Horizon Task,3.2.5,MacIntel,60,0,horizon,Johns_Hopkins_R1.json,right,9178,0.7477000000002363,,,,,,24,h6,3,LH,42,52,,R,0,178,178,178,1,40,48
,,,,,,,10,baseline,Johns_Hopkins_R1.json,2022-07-22_10h19.49.142,johns_hopkins,/js/tasks/horizon/game_type_v3.xls,/js/tasks/horizon/media/johns_hopkins_instruct_slide_R1.csv,Horizon Task,3.2.5,MacIntel,60,0,horizon,Johns_Hopkins_R1.json,right,9233,1.966300000000274,,,,,,24,h6,4,LH,52,55,,X,0,179,179,179,1,40,48
,,,,,,,10,baseline,Johns_Hopkins_R1.json,2022-07-22_10h19.49.142,johns_hopkins,/js/tasks/horizon/game_type_v3.xls,/js/tasks/horizon/media/johns_hopkins_instruct_slide_R1.csv,Horizon Task,3.2.5,MacIntel,60,0,horizon,Johns_Hopkins_R1.json,right,9284,1.0351000000001704,,,,,,24,h6,5,LH,46,51,,X,0,180,180,180,1,40,48
,,,,,,,10,baseline,Johns_Hopkins_R1.json,2022-07-22_10h19.49.142,johns_hopkins,/js/tasks/horizon/game_type_v3.xls,/js/tasks/horizon/media/johns_hopkins_instruct_slide_R1.csv,Horizon Task,3.2.5,MacIntel,60,0,horizon,Johns_Hopkins_R1.json,right,9335,1.6672000000002072,,,,,,24,h6,6,LH,50,51,,X,0,181,181,181,1,40,48
,,,,,,,10,baseline,Johns_Hopkins_R1.json,2022-07-22_10h19.49.142,johns_hopkins,/js/tasks/horizon/game_type_v3.xls,/js/tasks/horizon/media/johns_hopkins_instruct_slide_R1.csv,Horizon Task,3.2.5,MacIntel,60,0,horizon,Johns_Hopkins_R1.json,right,9369,1.7321000000001732,,,,,,24,h6,7,LH,47,34,,X,0,182,182,182,1,40,48
,,,,,,,10,baseline,Johns_Hopkins_R1.json,2022-07-22_10h19.49.142,johns_hopkins,/js/tasks/horizon/game_type_v3.xls,/js/tasks/horizon/media/johns_hopkins_instruct_slide_R1.csv,Horizon Task,3.2.5,MacIntel,60,0,horizon,Johns_Hopkins_R1.json,right,9418,2.3826000000001386,,,,,,24,h6,8,LH,30,49,,X,0,183,183,183,1,40,48
,,,,,,,10,baseline,Johns_Hopkins_R1.json,2022-07-22_10h19.49.142,johns_hopkins,/js/tasks/horizon/game_type_v3.xls,/js/tasks/horizon/media/johns_hopkins_instruct_slide_R1.csv,Horizon Task,3.2.5,MacIntel,60,0,horizon,Johns_Hopkins_R1.json,right,9471,2.0486000000000786,,,,,,24,h6,9,LH,29,53,,X,0,184,184,184,1,40,48
,,,,,,,10,baseline,Johns_Hopkins_R1.json,2022-07-22_10h19.49.142,johns_hopkins,/js/tasks/horizon/game_type_v3.xls,/js/tasks/horizon/media/johns_hopkins_instruct_slide_R1.csv,Horizon Task,3.2.5,MacIntel,60,0,horizon,Johns_Hopkins_R1.json,left,9496,0.5661000000001195,,,,,,25,h6,0,LH,25,48,,L,0,185,185,185,1,20,40
,,,,,,,10,baseline,Johns_Hopkins_R1.json,2022-07-22_10h19.49.142,johns_hopkins,/js/tasks/horizon/game_type_v3.xls,/js/tasks/horizon/media/johns_hopkins_instruct_slide_R1.csv,Horizon Task,3.2.5,MacIntel,60,0,horizon,Johns_Hopkins_R1.json,right,9544,0.720600000000104,,,,,,25,h6,1,LH,20,48,,R,0,186,186,186,1,20,40
,,,,,,,10,baseline,Johns_Hopkins_R1.json,2022-07-22_10h19.49.142,johns_hopkins,/js/tasks/horizon/game_type_v3.xls,/js/tasks/horizon/media/johns_hopkins_instruct_slide_R1.csv,Horizon Task,3.2.5,MacIntel,60,0,horizon,Johns_Hopkins_R1.json,right,9572,1.1693999999998823,,,,,,25,h6,2,LH,8,28,,R,0,187,187,187,1,20,40
,,,,,,,10,baseline,Johns_Hopkins_R1.json,2022-07-22_10h19.49.142,johns_hopkins,/js/tasks/horizon/game_type_v3.xls,/js/tasks/horizon/media/johns_hopkins_instruct_slide_R1.csv,Horizon Task,3.2.5,MacIntel,60,0,horizon,Johns_Hopkins_R1.json,left,9594,0.6697999999998956,,,,,,25,h6,3,LH,22,33,,L,0,188,188,188,1,20,40
,,,,,,,10,baseline,Johns_Hopkins_R1.json,2022-07-22_10h19.49.142,johns_hopkins,/js/tasks/horizon/game_type_v3.xls,/js/tasks/horizon/media/johns_hopkins_instruct_slide_R1.csv,Horizon Task,3.2.5,MacIntel,60,0,horizon,Johns_Hopkins_R1.json,right,9622,1.0838999999999714,,,,,,25,h6,4,LH,29,28,,X,0,189,189,189,1,20,40
,,,,,,,10,baseline,Johns_Hopkins_R1.json,2022-07-22_10h19.49.142,johns_hopkins,/js/tasks/horizon/game_type_v3.xls,/js/tasks/horizon/media/johns_hopkins_instruct_slide_R1.csv,Horizon Task,3.2.5,MacIntel,60,0,horizon,Johns_Hopkins_R1.json,left,9638,3.3508999999999105,,,,,,25,h6,5,LH,16,39,,X,0,190,190,190,1,20,40
,,,,,,,10,baseline,Johns_Hopkins_R1.json,2022-07-22_10h19.49.142,johns_hopkins,/js/tasks/horizon/game_type_v3.xls,/js/tasks/horizon/media/johns_hopkins_instruct_slide_R1.csv,Horizon Task,3.2.5,MacIntel,60,0,horizon,Johns_Hopkins_R1.json,right,9689,2.3212999999998374,,,,,,25,h6,6,LH,41,51,,X,0,191,191,191,1,20,40
,,,,,,,10,baseline,Johns_Hopkins_R1.json,2022-07-22_10h19.49.142,johns_hopkins,/js/tasks/horizon/game_type_v3.xls,/js/tasks/horizon/media/johns_hopkins_instruct_slide_R1.csv,Horizon Task,3.2.5,MacIntel,60,0,horizon,Johns_Hopkins_R1.json,right,9724,1.4362999999998465,,,,,,25,h6,7,LH,22,35,,X,0,192,192,192,1,20,40
,,,,,,,10,baseline,Johns_Hopkins_R1.json,2022-07-22_10h19.49.142,johns_hopkins,/js/tasks/horizon/game_type_v3.xls,/js/tasks/horizon/media/johns_hopkins_instruct_slide_R1.csv,Horizon Task,3.2.5,MacIntel,60,0,horizon,Johns_Hopkins_R1.json,right,9774,2.1720000000000255,,,,,,25,h6,8,LH,30,50,,X,0,193,193,193,1,20,40
,,,,,,,10,baseline,Johns_Hopkins_R1.json,2022-07-22_10h19.49.142,johns_hopkins,/js/tasks/horizon/game_type_v3.xls,/js/tasks/horizon/media/johns_hopkins_instruct_slide_R1.csv,Horizon Task,3.2.5,MacIntel,60,0,horizon,Johns_Hopkins_R1.json,right,9808,1.1803999999999633,,,,,,25,h6,9,LH,14,34,,X,0,194,194,194,1,20,40
,,,,,,,10,baseline,Johns_Hopkins_R1.json,2022-07-22_10h19.49.142,johns_hopkins,/js/tasks/horizon/game_type_v3.xls,/js/tasks/horizon/media/johns_hopkins_instruct_slide_R1.csv,Horizon Task,3.2.5,MacIntel,60,0,horizon,Johns_Hopkins_R1.json,right,9868,1.0179000000003953,,,,,,26,h6,0,LH,69,60,,R,0,195,195,195,1,56,60
,,,,,,,10,baseline,Johns_Hopkins_R1.json,2022-07-22_10h19.49.142,johns_hopkins,/js/tasks/horizon/game_type_v3.xls,/js/tasks/horizon/media/johns_hopkins_instruct_slide_R1.csv,Horizon Task,3.2.5,MacIntel,60,0,horizon,Johns_Hopkins_R1.json,left,9923,1.4156000000000404,,,,,,26,h6,1,LH,55,53,,L,0,196,196,196,1,56,60
,,,,,,,10,baseline,Johns_Hopkins_R1.json,2022-07-22_10h19.49.142,johns_hopkins,/js/tasks/horizon/game_type_v3.xls,/js/tasks/horizon/media/johns_hopkins_instruct_slide_R1.csv,Horizon Task,3.2.5,MacIntel,60,0,horizon,Johns_Hopkins_R1.json,left,9980,1.8687000000001035,,,,,,26,h6,2,LH,57,59,,L,0,197,197,197,1,56,60
,,,,,,,10,baseline,Johns_Hopkins_R1.json,2022-07-22_10h19.49.142,johns_hopkins,/js/tasks/horizon/game_type_v3.xls,/js/tasks/horizon/media/johns_hopkins_instruct_slide_R1.csv,Horizon Task,3.2.5,MacIntel,60,0,horizon,Johns_Hopkins_R1.json,left,10042,1.4734999999999445,,,,,,26,h6,3,LH,62,46,,L,0,198,198,198,1,56,60
,,,,,,,10,baseline,Johns_Hopkins_R1.json,2022-07-22_10h19.49.142,johns_hopkins,/js/tasks/horizon/game_type_v3.xls,/js/tasks/horizon/media/johns_hopkins_instruct_slide_R1.csv,Horizon Task,3.2.5,MacIntel,60,0,horizon,Johns_Hopkins_R1.json,right,10105,2.65409999999963,,,,,,26,h6,4,LH,50,63,,X,0,199,199,199,1,56,60
,,,,,,,10,baseline,Johns_Hopkins_R1.json,2022-07-22_10h19.49.142,johns_hopkins,/js/tasks/horizon/game_type_v3.xls,/js/tasks/horizon/media/johns_hopkins_instruct_slide_R1.csv,Horizon Task,3.2.5,MacIntel,60,0,horizon,Johns_Hopkins_R1.json,right,10173,1.1002999999998337,,,,,,26,h6,5,LH,65,68,,X,0,200,200,200,1,56,60
,,,,,,,10,baseline,Johns_Hopkins_R1.json,2022-07-22_10h19.49.142,johns_hopkins,/js/tasks/horizon/game_type_v3.xls,/js/tasks/horizon/media/johns_hopkins_instruct_slide_R1.csv,Horizon Task,3.2.5,MacIntel,60,0,horizon,Johns_Hopkins_R1.json,right,10237,1.1672999999997273,,,,,,26,h6,6,LH,59,64,,X,0,201,201,201,1,56,60
,,,,,,,10,baseline,Johns_Hopkins_R1.json,2022-07-22_10h19.49.142,johns_hopkins,/js/tasks/horizon/game_type_v3.xls,/js/tasks/horizon/media/johns_hopkins_instruct_slide_R1.csv,Horizon Task,3.2.5,MacIntel,60,0,horizon,Johns_Hopkins_R1.json,right,10289,1.4496000000001459,,,,,,26,h6,7,LH,46,52,,X,0,202,202,202,1,56,60
,,,,,,,10,baseline,Johns_Hopkins_R1.json,2022-07-22_10h19.49.142,johns_hopkins,/js/tasks/horizon/game_type_v3.xls,/js/tasks/horizon/media/johns_hopkins_instruct_slide_R1.csv,Horizon Task,3.2.5,MacIntel,60,0,horizon,Johns_Hopkins_R1.json,left,10357,1.713100000000054,,,,,,26,h6,8,LH,68,58,,X,0,203,203,203,1,56,60
,,,,,,,10,baseline,Johns_Hopkins_R1.json,2022-07-22_10h19.49.142,johns_hopkins,/js/tasks/horizon/game_type_v3.xls,/js/tasks/horizon/media/johns_hopkins_instruct_slide_R1.csv,Horizon Task,3.2.5,MacIntel,60,0,horizon,Johns_Hopkins_R1.json,left,10419,0.8227000000001681,,,,,,26,h6,9,LH,62,62,,X,0,204,204,204,1,56,60
,,,,,,,10,baseline,Johns_Hopkins_R1.json,2022-07-22_10h19.49.142,johns_hopkins,/js/tasks/horizon/game_type_v3.xls,/js/tasks/horizon/media/johns_hopkins_instruct_slide_R1.csv,Horizon Task,3.2.5,MacIntel,60,0,horizon,Johns_Hopkins_R1.json,left,10476,0.7303000000002839,,,,,,27,h1,0,HL,57,35,,L,0,205,205,205,1,60,40
,,,,,,,10,baseline,Johns_Hopkins_R1.json,2022-07-22_10h19.49.142,johns_hopkins,/js/tasks/horizon/game_type_v3.xls,/js/tasks/horizon/media/johns_hopkins_instruct_slide_R1.csv,Horizon Task,3.2.5,MacIntel,60,0,horizon,Johns_Hopkins_R1.json,right,10526,2.0119000000003098,,,,,,27,h1,1,HL,63,50,,R,0,206,206,206,1,60,40
,,,,,,,10,baseline,Johns_Hopkins_R1.json,2022-07-22_10h19.49.142,johns_hopkins,/js/tasks/horizon/game_type_v3.xls,/js/tasks/horizon/media/johns_hopkins_instruct_slide_R1.csv,Horizon Task,3.2.5,MacIntel,60,0,horizon,Johns_Hopkins_R1.json,left,10583,0.984600000000114,,,,,,27,h1,2,HL,57,53,,L,0,207,207,207,1,60,40
,,,,,,,10,baseline,Johns_Hopkins_R1.json,2022-07-22_10h19.49.142,johns_hopkins,/js/tasks/horizon/game_type_v3.xls,/js/tasks/horizon/media/johns_hopkins_instruct_slide_R1.csv,Horizon Task,3.2.5,MacIntel,60,0,horizon,Johns_Hopkins_R1.json,right,10631,0.949100000000044,,,,,,27,h1,3,HL,54,48,,R,0,208,208,208,1,60,40
,,,,,,,10,baseline,Johns_Hopkins_R1.json,2022-07-22_10h19.49.142,johns_hopkins,/js/tasks/horizon/game_type_v3.xls,/js/tasks/horizon/media/johns_hopkins_instruct_slide_R1.csv,Horizon Task,3.2.5,MacIntel,60,0,horizon,Johns_Hopkins_R1.json,left,10693,1.2873999999998205,,,,,,27,h1,4,HL,62,36,,X,0,209,209,209,1,60,40
,,,,,,,10,baseline,Johns_Hopkins_R1.json,2022-07-22_10h19.49.142,johns_hopkins,/js/tasks/horizon/game_type_v3.xls,/js/tasks/horizon/media/johns_hopkins_instruct_slide_R1.csv,Horizon Task,3.2.5,MacIntel,60,0,horizon,Johns_Hopkins_R1.json,right,10719,1.0256000000001677,,,,,,28,h6,0,HL,43,26,,R,0,210,210,210,1,40,28
,,,,,,,10,baseline,Johns_Hopkins_R1.json,2022-07-22_10h19.49.142,johns_hopkins,/js/tasks/horizon/game_type_v3.xls,/js/tasks/horizon/media/johns_hopkins_instruct_slide_R1.csv,Horizon Task,3.2.5,MacIntel,60,0,horizon,Johns_Hopkins_R1.json,right,10740,0.7477000000002363,,,,,,28,h6,1,HL,31,21,,R,0,211,211,211,1,40,28
,,,,,,,10,baseline,Johns_Hopkins_R1.json,2022-07-22_10h19.49.142,johns_hopkins,/js/tasks/horizon/game_type_v3.xls,/js/tasks/horizon/media/johns_hopkins_instruct_slide_R1.csv,Horizon Task,3.2.5,MacIntel,60,0,horizon,Johns_Hopkins_R1.json,right,10765,0.7318999999998823,,,,,,28,h6,2,HL,36,25,,R,0,212,212,212,1,40,28
,,,,,,,10,baseline,Johns_Hopkins_R1.json,2022-07-22_10h19.49.142,johns_hopkins,/js/tasks/horizon/game_type_v3.xls,/js/tasks/horizon/media/johns_hopkins_instruct_slide_R1.csv,Horizon Task,3.2.5,MacIntel,60,0,horizon,Johns_Hopkins_R1.json,left,10805,0.9980000000000473,,,,,,28,h6,3,HL,40,23,,L,0,213,213,213,1,40,28
,,,,,,,10,baseline,Johns_Hopkins_R1.json,2022-07-22_10h19.49.142,johns_hopkins,/js/tasks/horizon/game_type_v3.xls,/js/tasks/horizon/media/johns_hopkins_instruct_slide_R1.csv,Horizon Task,3.2.5,MacIntel,60,0,horizon,Johns_Hopkins_R1.json,left,10845,1.8514999999999873,,,,,,28,h6,4,HL,40,18,,X,0,214,214,214,1,40,28
,,,,,,,10,baseline,Johns_Hopkins_R1.json,2022-07-22_10h19.49.142,johns_hopkins,/js/tasks/horizon/game_type_v3.xls,/js/tasks/horizon/media/johns_hopkins_instruct_slide_R1.csv,Horizon Task,3.2.5,MacIntel,60,0,horizon,Johns_Hopkins_R1.json,left,10887,1.3168999999999187,,,,,,28,h6,5,HL,42,29,,X,0,215,215,215,1,40,28
,,,,,,,10,baseline,Johns_Hopkins_R1.json,2022-07-22_10h19.49.142,johns_hopkins,/js/tasks/horizon/game_type_v3.xls,/js/tasks/horizon/media/johns_hopkins_instruct_slide_R1.csv,Horizon Task,3.2.5,MacIntel,60,0,horizon,Johns_Hopkins_R1.json,left,10925,1.0698999999999614,,,,,,28,h6,6,HL,38,28,,X,0,216,216,216,1,40,28
,,,,,,,10,baseline,Johns_Hopkins_R1.json,2022-07-22_10h19.49.142,johns_hopkins,/js/tasks/horizon/game_type_v3.xls,/js/tasks/horizon/media/johns_hopkins_instruct_slide_R1.csv,Horizon Task,3.2.5,MacIntel,60,0,horizon,Johns_Hopkins_R1.json,left,10968,1.7006000000001222,,,,,,28,h6,7,HL,43,28,,X,0,217,217,217,1,40,28
,,,,,,,10,baseline,Johns_Hopkins_R1.json,2022-07-22_10h19.49.142,johns_hopkins,/js/tasks/horizon/game_type_v3.xls,/js/tasks/horizon/media/johns_hopkins_instruct_slide_R1.csv,Horizon Task,3.2.5,MacIntel,60,0,horizon,Johns_Hopkins_R1.json,left,11011,1.2027000000001635,,,,,,28,h6,8,HL,43,29,,X,0,218,218,218,1,40,28
,,,,,,,10,baseline,Johns_Hopkins_R1.json,2022-07-22_10h19.49.142,johns_hopkins,/js/tasks/horizon/game_type_v3.xls,/js/tasks/horizon/media/johns_hopkins_instruct_slide_R1.csv,Horizon Task,3.2.5,MacIntel,60,0,horizon,Johns_Hopkins_R1.json,left,11056,1.499199999999746,,,,,,28,h6,9,HL,45,35,,X,0,219,219,219,1,40,28
,,,,,,,10,baseline,Johns_Hopkins_R1.json,2022-07-22_10h19.49.142,johns_hopkins,/js/tasks/horizon/game_type_v3.xls,/js/tasks/horizon/media/johns_hopkins_instruct_slide_R1.csv,Horizon Task,3.2.5,MacIntel,60,0,horizon,Johns_Hopkins_R1.json,left,11078,0.8151000000000295,,,,,,29,h6,0,LH,22,58,,L,0,220,220,220,1,40,52
,,,,,,,10,baseline,Johns_Hopkins_R1.json,2022-07-22_10h19.49.142,johns_hopkins,/js/tasks/horizon/game_type_v3.xls,/js/tasks/horizon/media/johns_hopkins_instruct_slide_R1.csv,Horizon Task,3.2.5,MacIntel,60,0,horizon,Johns_Hopkins_R1.json,right,11129,1.3843999999999141,,,,,,29,h6,1,LH,32,51,,R,0,221,221,221,1,40,52
,,,,,,,10,baseline,Johns_Hopkins_R1.json,2022-07-22_10h19.49.142,johns_hopkins,/js/tasks/horizon/game_type_v3.xls,/js/tasks/horizon/media/johns_hopkins_instruct_slide_R1.csv,Horizon Task,3.2.5,MacIntel,60,0,horizon,Johns_Hopkins_R1.json,left,11191,1.5179000000003953,,,,,,29,h6,2,LH,62,53,,L,0,222,222,222,1,40,52
,,,,,,,10,baseline,Johns_Hopkins_R1.json,2022-07-22_10h19.49.142,johns_hopkins,/js/tasks/horizon/game_type_v3.xls,/js/tasks/horizon/media/johns_hopkins_instruct_slide_R1.csv,Horizon Task,3.2.5,MacIntel,60,0,horizon,Johns_Hopkins_R1.json,right,11245,0.9837000000001126,,,,,,29,h6,3,LH,52,54,,R,0,223,223,223,1,40,52
,,,,,,,10,baseline,Johns_Hopkins_R1.json,2022-07-22_10h19.49.142,johns_hopkins,/js/tasks/horizon/game_type_v3.xls,/js/tasks/horizon/media/johns_hopkins_instruct_slide_R1.csv,Horizon Task,3.2.5,MacIntel,60,0,horizon,Johns_Hopkins_R1.json,right,11301,3.027799999999843,,,,,,29,h6,4,LH,37,56,,X,0,224,224,224,1,40,52
,,,,,,,10,baseline,Johns_Hopkins_R1.json,2022-07-22_10h19.49.142,johns_hopkins,/js/tasks/horizon/game_type_v3.xls,/js/tasks/horizon/media/johns_hopkins_instruct_slide_R1.csv,Horizon Task,3.2.5,MacIntel,60,0,horizon,Johns_Hopkins_R1.json,right,11344,1.5511000000001332,,,,,,29,h6,5,LH,45,43,,X,0,225,225,225,1,40,52
,,,,,,,10,baseline,Johns_Hopkins_R1.json,2022-07-22_10h19.49.142,johns_hopkins,/js/tasks/horizon/game_type_v3.xls,/js/tasks/horizon/media/johns_hopkins_instruct_slide_R1.csv,Horizon Task,3.2.5,MacIntel,60,0,horizon,Johns_Hopkins_R1.json,left,11399,1.052500000000009,,,,,,29,h6,6,LH,55,51,,X,0,226,226,226,1,40,52
,,,,,,,10,baseline,Johns_Hopkins_R1.json,2022-07-22_10h19.49.142,johns_hopkins,/js/tasks/horizon/game_type_v3.xls,/js/tasks/horizon/media/johns_hopkins_instruct_slide_R1.csv,Horizon Task,3.2.5,MacIntel,60,0,horizon,Johns_Hopkins_R1.json,left,11444,1.9861000000000786,,,,,,29,h6,7,LH,45,42,,X,0,227,227,227,1,40,52
,,,,,,,10,baseline,Johns_Hopkins_R1.json,2022-07-22_10h19.49.142,johns_hopkins,/js/tasks/horizon/game_type_v3.xls,/js/tasks/horizon/media/johns_hopkins_instruct_slide_R1.csv,Horizon Task,3.2.5,MacIntel,60,0,horizon,Johns_Hopkins_R1.json,right,11483,2.2167999999998074,,,,,,29,h6,8,LH,49,39,,X,0,228,228,228,1,40,52
,,,,,,,10,baseline,Johns_Hopkins_R1.json,2022-07-22_10h19.49.142,johns_hopkins,/js/tasks/horizon/game_type_v3.xls,/js/tasks/horizon/media/johns_hopkins_instruct_slide_R1.csv,Horizon Task,3.2.5,MacIntel,60,0,horizon,Johns_Hopkins_R1.json,left,11517,1.6129999999999427,,,,,,29,h6,9,LH,34,68,,X,0,229,229,229,1,40,52
,,,,,,,10,baseline,Johns_Hopkins_R1.json,2022-07-22_10h19.49.142,johns_hopkins,/js/tasks/horizon/game_type_v3.xls,/js/tasks/horizon/media/johns_hopkins_instruct_slide_R1.csv,Horizon Task,3.2.5,MacIntel,60,0,horizon,Johns_Hopkins_R1.json,right,11592,1.4674999999999727,,,,,,30,h1,0,LH,43,75,,R,0,230,230,230,1,40,70
,,,,,,,10,baseline,Johns_Hopkins_R1.json,2022-07-22_10h19.49.142,johns_hopkins,/js/tasks/horizon/game_type_v3.xls,/js/tasks/horizon/media/johns_hopkins_instruct_slide_R1.csv,Horizon Task,3.2.5,MacIntel,60,0,horizon,Johns_Hopkins_R1.json,right,11672,0.9168999999999414,,,,,,30,h1,1,LH,30,80,,R,0,231,231,231,1,40,70
,,,,,,,10,baseline,Johns_Hopkins_R1.json,2022-07-22_10h19.49.142,johns_hopkins,/js/tasks/horizon/game_type_v3.xls,/js/tasks/horizon/media/johns_hopkins_instruct_slide_R1.csv,Horizon Task,3.2.5,MacIntel,60,0,horizon,Johns_Hopkins_R1.json,right,11742,1.1529000000003862,,,,,,30,h1,2,LH,40,70,,R,0,232,232,232,1,40,70
,,,,,,,10,baseline,Johns_Hopkins_R1.json,2022-07-22_10h19.49.142,johns_hopkins,/js/tasks/horizon/game_type_v3.xls,/js/tasks/horizon/media/johns_hopkins_instruct_slide_R1.csv,Horizon Task,3.2.5,MacIntel,60,0,horizon,Johns_Hopkins_R1.json,left,11764,1.7862999999997555,,,,,,30,h1,3,LH,22,65,,L,0,233,233,233,1,40,70
,,,,,,,10,baseline,Johns_Hopkins_R1.json,2022-07-22_10h19.49.142,johns_hopkins,/js/tasks/horizon/game_type_v3.xls,/js/tasks/horizon/media/johns_hopkins_instruct_slide_R1.csv,Horizon Task,3.2.5,MacIntel,60,0,horizon,Johns_Hopkins_R1.json,right,11842,1.1527999999998428,,,,,,30,h1,4,LH,40,78,,X,0,234,234,234,1,40,70
,,,,,,,10,baseline,Johns_Hopkins_R1.json,2022-07-22_10h19.49.142,johns_hopkins,/js/tasks/horizon/game_type_v3.xls,/js/tasks/horizon/media/johns_hopkins_instruct_slide_R1.csv,Horizon Task,3.2.5,MacIntel,60,0,horizon,Johns_Hopkins_R1.json,right,11908,1.1008000000002767,,,,,,31,h1,0,HL,60,66,,R,0,235,235,235,1,68,60
,,,,,,,10,baseline,Johns_Hopkins_R1.json,2022-07-22_10h19.49.142,johns_hopkins,/js/tasks/horizon/game_type_v3.xls,/js/tasks/horizon/media/johns_hopkins_instruct_slide_R1.csv,Horizon Task,3.2.5,MacIntel,60,0,horizon,Johns_Hopkins_R1.json,left,11970,0.6848999999999705,,,,,,31,h1,1,HL,62,54,,L,0,236,236,236,1,68,60
,,,,,,,10,baseline,Johns_Hopkins_R1.json,2022-07-22_10h19.49.142,johns_hopkins,/js/tasks/horizon/game_type_v3.xls,/js/tasks/horizon/media/johns_hopkins_instruct_slide_R1.csv,Horizon Task,3.2.5,MacIntel,60,0,horizon,Johns_Hopkins_R1.json,left,12046,1.684500000000071,,,,,,31,h1,2,HL,76,51,,L,0,237,237,237,1,68,60
,,,,,,,10,baseline,Johns_Hopkins_R1.json,2022-07-22_10h19.49.142,johns_hopkins,/js/tasks/horizon/game_type_v3.xls,/js/tasks/horizon/media/johns_hopkins_instruct_slide_R1.csv,Horizon Task,3.2.5,MacIntel,60,0,horizon,Johns_Hopkins_R1.json,right,12106,1.5367000000002236,,,,,,31,h1,3,HL,57,60,,R,0,238,238,238,1,68,60
,,,,,,,10,baseline,Johns_Hopkins_R1.json,2022-07-22_10h19.49.142,johns_hopkins,/js/tasks/horizon/game_type_v3.xls,/js/tasks/horizon/media/johns_hopkins_instruct_slide_R1.csv,Horizon Task,3.2.5,MacIntel,60,0,horizon,Johns_Hopkins_R1.json,left,12170,1.3812999999998965,,,,,,31,h1,4,HL,64,44,,X,0,239,239,239,1,68,60
,,,,,,,10,baseline,Johns_Hopkins_R1.json,2022-07-22_10h19.49.142,johns_hopkins,/js/tasks/horizon/game_type_v3.xls,/js/tasks/horizon/media/johns_hopkins_instruct_slide_R1.csv,Horizon Task,3.2.5,MacIntel,60,0,horizon,Johns_Hopkins_R1.json,right,12177,0.6502999999997883,,,,,,32,h1,0,HL,30,7,,R,0,240,240,240,1,40,10
,,,,,,,10,baseline,Johns_Hopkins_R1.json,2022-07-22_10h19.49.142,johns_hopkins,/js/tasks/horizon/game_type_v3.xls,/js/tasks/horizon/media/johns_hopkins_instruct_slide_R1.csv,Horizon Task,3.2.5,MacIntel,60,0,horizon,Johns_Hopkins_R1.json,left,12216,0.6033999999998514,,,,,,32,h1,1,HL,39,11,,L,0,241,241,241,1,40,10
,,,,,,,10,baseline,Johns_Hopkins_R1.json,2022-07-22_10h19.49.142,johns_hopkins,/js/tasks/horizon/game_type_v3.xls,/js/tasks/horizon/media/johns_hopkins_instruct_slide_R1.csv,Horizon Task,3.2.5,MacIntel,60,0,horizon,Johns_Hopkins_R1.json,right,12217,0.8081000000000813,,,,,,32,h1,2,HL,45,1,,R,0,242,242,242,1,40,10
,,,,,,,10,baseline,Johns_Hopkins_R1.json,2022-07-22_10h19.49.142,johns_hopkins,/js/tasks/horizon/game_type_v3.xls,/js/tasks/horizon/media/johns_hopkins_instruct_slide_R1.csv,Horizon Task,3.2.5,MacIntel,60,0,horizon,Johns_Hopkins_R1.json,left,12263,0.960399999999936,,,,,,32,h1,3,HL,46,17,,L,0,243,243,243,1,40,10
,,,,,,,10,baseline,Johns_Hopkins_R1.json,2022-07-22_10h19.49.142,johns_hopkins,/js/tasks/horizon/game_type_v3.xls,/js/tasks/horizon/media/johns_hopkins_instruct_slide_R1.csv,Horizon Task,3.2.5,MacIntel,60,0,horizon,Johns_Hopkins_R1.json,left,12297,1.46449999999993,,,,,,32,h1,4,HL,34,9,,X,0,244,244,244,1,40,10
,,,,,,,10,baseline,Johns_Hopkins_R1.json,2022-07-22_10h19.49.142,johns_hopkins,/js/tasks/horizon/game_type_v3.xls,/js/tasks/horizon/media/johns_hopkins_instruct_slide_R1.csv,Horizon Task,3.2.5,MacIntel,60,0,horizon,Johns_Hopkins_R1.json,left,12346,0.9379999999999882,,,,,,33,h6,0,HL,49,41,,L,0,245,245,245,1,60,40
,,,,,,,10,baseline,Johns_Hopkins_R1.json,2022-07-22_10h19.49.142,johns_hopkins,/js/tasks/horizon/game_type_v3.xls,/js/tasks/horizon/media/johns_hopkins_instruct_slide_R1.csv,Horizon Task,3.2.5,MacIntel,60,0,horizon,Johns_Hopkins_R1.json,right,12389,0.845600000000104,,,,,,33,h6,1,HL,68,43,,R,0,246,246,246,1,60,40
,,,,,,,10,baseline,Johns_Hopkins_R1.json,2022-07-22_10h19.49.142,johns_hopkins,/js/tasks/horizon/game_type_v3.xls,/js/tasks/horizon/media/johns_hopkins_instruct_slide_R1.csv,Horizon Task,3.2.5,MacIntel,60,0,horizon,Johns_Hopkins_R1.json,left,12456,0.8987000000001899,,,,,,33,h6,2,HL,67,40,,L,0,247,247,247,1,60,40
,,,,,,,10,baseline,Johns_Hopkins_R1.json,2022-07-22_10h19.49.142,johns_hopkins,/js/tasks/horizon/game_type_v3.xls,/js/tasks/horizon/media/johns_hopkins_instruct_slide_R1.csv,Horizon Task,3.2.5,MacIntel,60,0,horizon,Johns_Hopkins_R1.json,right,12492,0.5489000000003443,,,,,,33,h6,3,HL,55,36,,R,0,248,248,248,1,60,40
,,,,,,,10,baseline,Johns_Hopkins_R1.json,2022-07-22_10h19.49.142,johns_hopkins,/js/tasks/horizon/game_type_v3.xls,/js/tasks/horizon/media/johns_hopkins_instruct_slide_R1.csv,Horizon Task,3.2.5,MacIntel,60,0,horizon,Johns_Hopkins_R1.json,left,12551,1.9171000000001186,,,,,,33,h6,4,HL,59,49,,X,0,249,249,249,1,60,40
,,,,,,,10,baseline,Johns_Hopkins_R1.json,2022-07-22_10h19.49.142,johns_hopkins,/js/tasks/horizon/game_type_v3.xls,/js/tasks/horizon/media/johns_hopkins_instruct_slide_R1.csv,Horizon Task,3.2.5,MacIntel,60,0,horizon,Johns_Hopkins_R1.json,left,12611,1.7741999999997233,,,,,,33,h6,5,HL,60,28,,X,0,250,250,250,1,60,40
,,,,,,,10,baseline,Johns_Hopkins_R1.json,2022-07-22_10h19.49.142,johns_hopkins,/js/tasks/horizon/game_type_v3.xls,/js/tasks/horizon/media/johns_hopkins_instruct_slide_R1.csv,Horizon Task,3.2.5,MacIntel,60,0,horizon,Johns_Hopkins_R1.json,left,12661,1.2375000000000682,,,,,,33,h6,6,HL,50,48,,X,0,251,251,251,1,60,40
,,,,,,,10,baseline,Johns_Hopkins_R1.json,2022-07-22_10h19.49.142,johns_hopkins,/js/tasks/horizon/game_type_v3.xls,/js/tasks/horizon/media/johns_hopkins_instruct_slide_R1.csv,Horizon Task,3.2.5,MacIntel,60,0,horizon,Johns_Hopkins_R1.json,left,12725,1.142400000000407,,,,,,33,h6,7,HL,64,50,,X,0,252,252,252,1,60,40
,,,,,,,10,baseline,Johns_Hopkins_R1.json,2022-07-22_10h19.49.142,johns_hopkins,/js/tasks/horizon/game_type_v3.xls,/js/tasks/horizon/media/johns_hopkins_instruct_slide_R1.csv,Horizon Task,3.2.5,MacIntel,60,0,horizon,Johns_Hopkins_R1.json,left,12782,1.0381999999997333,,,,,,33,h6,8,HL,57,31,,X,0,253,253,253,1,60,40
,,,,,,,10,baseline,Johns_Hopkins_R1.json,2022-07-22_10h19.49.142,johns_hopkins,/js/tasks/horizon/game_type_v3.xls,/js/tasks/horizon/media/johns_hopkins_instruct_slide_R1.csv,Horizon Task,3.2.5,MacIntel,60,0,horizon,Johns_Hopkins_R1.json,left,12836,1.1840000000000828,,,,,,33,h6,9,HL,54,45,,X,0,254,254,254,1,60,40
,,,,,,,10,baseline,Johns_Hopkins_R1.json,2022-07-22_10h19.49.142,johns_hopkins,/js/tasks/horizon/game_type_v3.xls,/js/tasks/horizon/media/johns_hopkins_instruct_slide_R1.csv,Horizon Task,3.2.5,MacIntel,60,0,horizon,Johns_Hopkins_R1.json,left,12898,0.9378999999998996,,,,,,34,h6,0,LH,62,77,,L,0,255,255,255,1,60,80
,,,,,,,10,baseline,Johns_Hopkins_R1.json,2022-07-22_10h19.49.142,johns_hopkins,/js/tasks/horizon/game_type_v3.xls,/js/tasks/horizon/media/johns_hopkins_instruct_slide_R1.csv,Horizon Task,3.2.5,MacIntel,60,0,horizon,Johns_Hopkins_R1.json,left,12958,0.5652999999997519,,,,,,34,h6,1,LH,60,67,,L,0,256,256,256,1,60,80
,,,,,,,10,baseline,Johns_Hopkins_R1.json,2022-07-22_10h19.49.142,johns_hopkins,/js/tasks/horizon/game_type_v3.xls,/js/tasks/horizon/media/johns_hopkins_instruct_slide_R1.csv,Horizon Task,3.2.5,MacIntel,60,0,horizon,Johns_Hopkins_R1.json,left,13016,0.6533000000002858,,,,,,34,h6,2,LH,58,68,,L,0,257,257,257,1,60,80
,,,,,,,10,baseline,Johns_Hopkins_R1.json,2022-07-22_10h19.49.142,johns_hopkins,/js/tasks/horizon/game_type_v3.xls,/js/tasks/horizon/media/johns_hopkins_instruct_slide_R1.csv,Horizon Task,3.2.5,MacIntel,60,0,horizon,Johns_Hopkins_R1.json,right,13094,0.5848999999999478,,,,,,34,h6,3,LH,57,78,,R,0,258,258,258,1,60,80
,,,,,,,10,baseline,Johns_Hopkins_R1.json,2022-07-22_10h19.49.142,johns_hopkins,/js/tasks/horizon/game_type_v3.xls,/js/tasks/horizon/media/johns_hopkins_instruct_slide_R1.csv,Horizon Task,3.2.5,MacIntel,60,0,horizon,Johns_Hopkins_R1.json,right,13184,1.5653999999998405,,,,,,34,h6,4,LH,66,90,,X,0,259,259,259,1,60,80
,,,,,,,10,baseline,Johns_Hopkins_R1.json,2022-07-22_10h19.49.142,johns_hopkins,/js/tasks/horizon/game_type_v3.xls,/js/tasks/horizon/media/johns_hopkins_instruct_slide_R1.csv,Horizon Task,3.2.5,MacIntel,60,0,horizon,Johns_Hopkins_R1.json,right,13259,1.0176000000001295,,,,,,34,h6,5,LH,81,75,,X,0,260,260,260,1,60,80
,,,,,,,10,baseline,Johns_Hopkins_R1.json,2022-07-22_10h19.49.142,johns_hopkins,/js/tasks/horizon/game_type_v3.xls,/js/tasks/horizon/media/johns_hopkins_instruct_slide_R1.csv,Horizon Task,3.2.5,MacIntel,60,0,horizon,Johns_Hopkins_R1.json,right,13343,1.0004999999999882,,,,,,34,h6,6,LH,67,84,,X,0,261,261,261,1,60,80
,,,,,,,10,baseline,Johns_Hopkins_R1.json,2022-07-22_10h19.49.142,johns_hopkins,/js/tasks/horizon/game_type_v3.xls,/js/tasks/horizon/media/johns_hopkins_instruct_slide_R1.csv,Horizon Task,3.2.5,MacIntel,60,0,horizon,Johns_Hopkins_R1.json,right,13411,0.8144999999999527,,,,,,34,h6,7,LH,53,68,,X,0,262,262,262,1,60,80
,,,,,,,10,baseline,Johns_Hopkins_R1.json,2022-07-22_10h19.49.142,johns_hopkins,/js/tasks/horizon/game_type_v3.xls,/js/tasks/horizon/media/johns_hopkins_instruct_slide_R1.csv,Horizon Task,3.2.5,MacIntel,60,0,horizon,Johns_Hopkins_R1.json,right,13499,1.3312999999998283,,,,,,34,h6,8,LH,72,88,,X,0,263,263,263,1,60,80
,,,,,,,10,baseline,Johns_Hopkins_R1.json,2022-07-22_10h19.49.142,johns_hopkins,/js/tasks/horizon/game_type_v3.xls,/js/tasks/horizon/media/johns_hopkins_instruct_slide_R1.csv,Horizon Task,3.2.5,MacIntel,60,0,horizon,Johns_Hopkins_R1.json,right,13562,0.8012000000002217,,,,,,34,h6,9,LH,58,63,,X,0,264,264,264,1,60,80
,,,,,,,10,baseline,Johns_Hopkins_R1.json,2022-07-22_10h19.49.142,johns_hopkins,/js/tasks/horizon/game_type_v3.xls,/js/tasks/horizon/media/johns_hopkins_instruct_slide_R1.csv,Horizon Task,3.2.5,MacIntel,60,0,horizon,Johns_Hopkins_R1.json,right,13610,0.8980000000000246,,,,,,35,h6,0,LH,27,48,,R,0,265,265,265,1,30,60
