slides.thisRepN,slides.thisTrialN,slides.thisN,slides.thisIndex,slides.ran,instruct_slide,audio_path,participant,session,run_id,date,study,task_schedule,instruct_schedule,expName,psychopyVersion,OS,frameRate,index,task,run,resp.keys,points,resp.rt,example_trials.thisRepN,example_trials.thisTrialN,example_trials.thisN,example_trials.thisIndex,example_trials.ran,game_number,game_type,trial_num,mean_type,left_reward,right_reward,force_type,force_pos,trials.thisRepN,trials.thisTrialN,trials.thisN,trials.thisIndex,trials.ran,left_mean,right_mean
0,0,0,0,1,/js/tasks/horizon/media/horizonInstructions/johns_hopkins_title.jpg,/js/tasks/horizon/media/instruction_audio/slide1_23m4a.m4a,12,baseline,Johns_Hopkins_R1.json,2022-07-20_15h54.11.100,johns_hopkins,/js/tasks/horizon/game_type_v3.xls,/js/tasks/horizon/media/johns_hopkins_instruct_slide_R1.csv,Horizon Task,3.2.5,MacIntel,60,0,horizon,Johns_Hopkins_R1.json
0,1,1,1,1,/js/tasks/horizon/media/horizonInstructions/Slide2.jpeg,/js/tasks/horizon/media/instruction_audio/slide2.m4a,12,baseline,Johns_Hopkins_R1.json,2022-07-20_15h54.11.100,johns_hopkins,/js/tasks/horizon/game_type_v3.xls,/js/tasks/horizon/media/johns_hopkins_instruct_slide_R1.csv,Horizon Task,3.2.5,MacIntel,60,0,horizon,Johns_Hopkins_R1.json
0,2,2,2,1,/js/tasks/horizon/media/horizonInstructions/Slide3.jpeg,/js/tasks/horizon/media/instruction_audio/slide3.m4a,12,baseline,Johns_Hopkins_R1.json,2022-07-20_15h54.11.100,johns_hopkins,/js/tasks/horizon/game_type_v3.xls,/js/tasks/horizon/media/johns_hopkins_instruct_slide_R1.csv,Horizon Task,3.2.5,MacIntel,60,0,horizon,Johns_Hopkins_R1.json
0,3,3,3,1,/js/tasks/horizon/media/horizonInstructions/Slide4.jpeg,/js/tasks/horizon/media/instruction_audio/slide4.m4a,12,baseline,Johns_Hopkins_R1.json,2022-07-20_15h54.11.100,johns_hopkins,/js/tasks/horizon/game_type_v3.xls,/js/tasks/horizon/media/johns_hopkins_instruct_slide_R1.csv,Horizon Task,3.2.5,MacIntel,60,0,horizon,Johns_Hopkins_R1.json
0,4,4,4,1,/js/tasks/horizon/media/horizonInstructions/Slide5.jpeg,/js/tasks/horizon/media/instruction_audio/slide5.m4a,12,baseline,Johns_Hopkins_R1.json,2022-07-20_15h54.11.100,johns_hopkins,/js/tasks/horizon/game_type_v3.xls,/js/tasks/horizon/media/johns_hopkins_instruct_slide_R1.csv,Horizon Task,3.2.5,MacIntel,60,0,horizon,Johns_Hopkins_R1.json
0,5,5,5,1,/js/tasks/horizon/media/horizonInstructions/Slide6.jpeg,/js/tasks/horizon/media/instruction_audio/slide6.m4a,12,baseline,Johns_Hopkins_R1.json,2022-07-20_15h54.11.100,johns_hopkins,/js/tasks/horizon/game_type_v3.xls,/js/tasks/horizon/media/johns_hopkins_instruct_slide_R1.csv,Horizon Task,3.2.5,MacIntel,60,0,horizon,Johns_Hopkins_R1.json
0,6,6,6,1,/js/tasks/horizon/media/horizonInstructions/Slide7.jpeg,/js/tasks/horizon/media/instruction_audio/slide7.m4a,12,baseline,Johns_Hopkins_R1.json,2022-07-20_15h54.11.100,johns_hopkins,/js/tasks/horizon/game_type_v3.xls,/js/tasks/horizon/media/johns_hopkins_instruct_slide_R1.csv,Horizon Task,3.2.5,MacIntel,60,0,horizon,Johns_Hopkins_R1.json
0,7,7,7,1,/js/tasks/horizon/media/horizonInstructions/Slide8.jpeg,/js/tasks/horizon/media/instruction_audio/slide8.m4a,12,baseline,Johns_Hopkins_R1.json,2022-07-20_15h54.11.100,johns_hopkins,/js/tasks/horizon/game_type_v3.xls,/js/tasks/horizon/media/johns_hopkins_instruct_slide_R1.csv,Horizon Task,3.2.5,MacIntel,60,0,horizon,Johns_Hopkins_R1.json
0,8,8,8,1,/js/tasks/horizon/media/horizonInstructions/Slide9.jpeg,/js/tasks/horizon/media/instruction_audio/slide9.m4a,12,baseline,Johns_Hopkins_R1.json,2022-07-20_15h54.11.100,johns_hopkins,/js/tasks/horizon/game_type_v3.xls,/js/tasks/horizon/media/johns_hopkins_instruct_slide_R1.csv,Horizon Task,3.2.5,MacIntel,60,0,horizon,Johns_Hopkins_R1.json
0,9,9,9,1,/js/tasks/horizon/media/horizonInstructions/Slide10.jpeg,/js/tasks/horizon/media/instruction_audio/slide10.m4a,12,baseline,Johns_Hopkins_R1.json,2022-07-20_15h54.11.100,johns_hopkins,/js/tasks/horizon/game_type_v3.xls,/js/tasks/horizon/media/johns_hopkins_instruct_slide_R1.csv,Horizon Task,3.2.5,MacIntel,60,0,horizon,Johns_Hopkins_R1.json
0,10,10,10,1,/js/tasks/horizon/media/horizonInstructions/Slide11.jpeg,/js/tasks/horizon/media/instruction_audio/slide11.m4a,12,baseline,Johns_Hopkins_R1.json,2022-07-20_15h54.11.100,johns_hopkins,/js/tasks/horizon/game_type_v3.xls,/js/tasks/horizon/media/johns_hopkins_instruct_slide_R1.csv,Horizon Task,3.2.5,MacIntel,60,0,horizon,Johns_Hopkins_R1.json
0,11,11,11,1,/js/tasks/horizon/media/horizonInstructions/Slide12.jpeg,/js/tasks/horizon/media/instruction_audio/slide12.m4a,12,baseline,Johns_Hopkins_R1.json,2022-07-20_15h54.11.100,johns_hopkins,/js/tasks/horizon/game_type_v3.xls,/js/tasks/horizon/media/johns_hopkins_instruct_slide_R1.csv,Horizon Task,3.2.5,MacIntel,60,0,horizon,Johns_Hopkins_R1.json
0,12,12,12,1,/js/tasks/horizon/media/horizonInstructions/Slide13.jpeg,/js/tasks/horizon/media/instruction_audio/slide13.m4a,12,baseline,Johns_Hopkins_R1.json,2022-07-20_15h54.11.100,johns_hopkins,/js/tasks/horizon/game_type_v3.xls,/js/tasks/horizon/media/johns_hopkins_instruct_slide_R1.csv,Horizon Task,3.2.5,MacIntel,60,0,horizon,Johns_Hopkins_R1.json
0,13,13,13,1,/js/tasks/horizon/media/horizonInstructions/Slide14.jpeg,/js/tasks/horizon/media/instruction_audio/slide14.m4a,12,baseline,Johns_Hopkins_R1.json,2022-07-20_15h54.11.100,johns_hopkins,/js/tasks/horizon/game_type_v3.xls,/js/tasks/horizon/media/johns_hopkins_instruct_slide_R1.csv,Horizon Task,3.2.5,MacIntel,60,0,horizon,Johns_Hopkins_R1.json
0,14,14,14,1,/js/tasks/horizon/media/horizonInstructions/Slide15.jpeg,/js/tasks/horizon/media/instruction_audio/slide15.m4a,12,baseline,Johns_Hopkins_R1.json,2022-07-20_15h54.11.100,johns_hopkins,/js/tasks/horizon/game_type_v3.xls,/js/tasks/horizon/media/johns_hopkins_instruct_slide_R1.csv,Horizon Task,3.2.5,MacIntel,60,0,horizon,Johns_Hopkins_R1.json
0,15,15,15,1,/js/tasks/horizon/media/horizonInstructions/Slide16.jpeg,/js/tasks/horizon/media/instruction_audio/slide16.m4a,12,baseline,Johns_Hopkins_R1.json,2022-07-20_15h54.11.100,johns_hopkins,/js/tasks/horizon/game_type_v3.xls,/js/tasks/horizon/media/johns_hopkins_instruct_slide_R1.csv,Horizon Task,3.2.5,MacIntel,60,0,horizon,Johns_Hopkins_R1.json
0,16,16,16,1,/js/tasks/horizon/media/horizonInstructions/Slide17.jpeg,/js/tasks/horizon/media/instruction_audio/slide17.m4a,12,baseline,Johns_Hopkins_R1.json,2022-07-20_15h54.11.100,johns_hopkins,/js/tasks/horizon/game_type_v3.xls,/js/tasks/horizon/media/johns_hopkins_instruct_slide_R1.csv,Horizon Task,3.2.5,MacIntel,60,0,horizon,Johns_Hopkins_R1.json
0,17,17,17,1,/js/tasks/horizon/media/horizonInstructions/Slide18.jpeg,/js/tasks/horizon/media/instruction_audio/slide18.m4a,12,baseline,Johns_Hopkins_R1.json,2022-07-20_15h54.11.100,johns_hopkins,/js/tasks/horizon/game_type_v3.xls,/js/tasks/horizon/media/johns_hopkins_instruct_slide_R1.csv,Horizon Task,3.2.5,MacIntel,60,0,horizon,Johns_Hopkins_R1.json
0,18,18,18,1,/js/tasks/horizon/media/horizonInstructions/Slide19.jpeg,/js/tasks/horizon/media/instruction_audio/slide19.m4a,12,baseline,Johns_Hopkins_R1.json,2022-07-20_15h54.11.100,johns_hopkins,/js/tasks/horizon/game_type_v3.xls,/js/tasks/horizon/media/johns_hopkins_instruct_slide_R1.csv,Horizon Task,3.2.5,MacIntel,60,0,horizon,Johns_Hopkins_R1.json
0,19,19,19,1,/js/tasks/horizon/media/horizonInstructions/Slide20.jpeg,/js/tasks/horizon/media/instruction_audio/slide20.m4a,12,baseline,Johns_Hopkins_R1.json,2022-07-20_15h54.11.100,johns_hopkins,/js/tasks/horizon/game_type_v3.xls,/js/tasks/horizon/media/johns_hopkins_instruct_slide_R1.csv,Horizon Task,3.2.5,MacIntel,60,0,horizon,Johns_Hopkins_R1.json
0,20,20,20,1,/js/tasks/horizon/media/horizonInstructions/points_definition_vanderbelt.jpg,,12,baseline,Johns_Hopkins_R1.json,2022-07-20_15h54.11.100,johns_hopkins,/js/tasks/horizon/game_type_v3.xls,/js/tasks/horizon/media/johns_hopkins_instruct_slide_R1.csv,Horizon Task,3.2.5,MacIntel,60,0,horizon,Johns_Hopkins_R1.json
,,,,,,,12,baseline,Johns_Hopkins_R1.json,2022-07-20_15h54.11.100,johns_hopkins,/js/tasks/horizon/game_type_v3.xls,/js/tasks/horizon/media/johns_hopkins_instruct_slide_R1.csv,Horizon Task,3.2.5,MacIntel,60,0,horizon,Johns_Hopkins_R1.json,right,62,2.797100000000569,0,0,0,0,1,0,h6,0,HR,52,62,UL,R
,,,,,,,12,baseline,Johns_Hopkins_R1.json,2022-07-20_15h54.11.100,johns_hopkins,/js/tasks/horizon/game_type_v3.xls,/js/tasks/horizon/media/johns_hopkins_instruct_slide_R1.csv,Horizon Task,3.2.5,MacIntel,60,0,horizon,Johns_Hopkins_R1.json,right,128,1.7490000000000236,0,1,1,1,1,0,h6,1,HR,56,66,UL,R
,,,,,,,12,baseline,Johns_Hopkins_R1.json,2022-07-20_15h54.11.100,johns_hopkins,/js/tasks/horizon/game_type_v3.xls,/js/tasks/horizon/media/johns_hopkins_instruct_slide_R1.csv,Horizon Task,3.2.5,MacIntel,60,0,horizon,Johns_Hopkins_R1.json,left,173,1.4392999999998324,0,2,2,2,1,0,h6,2,HR,45,55,UL,L
,,,,,,,12,baseline,Johns_Hopkins_R1.json,2022-07-20_15h54.11.100,johns_hopkins,/js/tasks/horizon/game_type_v3.xls,/js/tasks/horizon/media/johns_hopkins_instruct_slide_R1.csv,Horizon Task,3.2.5,MacIntel,60,0,horizon,Johns_Hopkins_R1.json,right,222,1.3723000000007914,0,3,3,3,1,0,h6,3,HR,39,49,UL,R
,,,,,,,12,baseline,Johns_Hopkins_R1.json,2022-07-20_15h54.11.100,johns_hopkins,/js/tasks/horizon/game_type_v3.xls,/js/tasks/horizon/media/johns_hopkins_instruct_slide_R1.csv,Horizon Task,3.2.5,MacIntel,60,0,horizon,Johns_Hopkins_R1.json,right,283,7.204400000000362,0,4,4,4,1,0,h6,4,HR,51,61,UL,X
,,,,,,,12,baseline,Johns_Hopkins_R1.json,2022-07-20_15h54.11.100,johns_hopkins,/js/tasks/horizon/game_type_v3.xls,/js/tasks/horizon/media/johns_hopkins_instruct_slide_R1.csv,Horizon Task,3.2.5,MacIntel,60,0,horizon,Johns_Hopkins_R1.json,left,333,4.011299999999835,0,5,5,5,1,0,h6,5,HR,50,60,UL,X
,,,,,,,12,baseline,Johns_Hopkins_R1.json,2022-07-20_15h54.11.100,johns_hopkins,/js/tasks/horizon/game_type_v3.xls,/js/tasks/horizon/media/johns_hopkins_instruct_slide_R1.csv,Horizon Task,3.2.5,MacIntel,60,0,horizon,Johns_Hopkins_R1.json,right,386,0.8696000000005597,0,6,6,6,1,0,h6,6,HR,43,53,UL,X
,,,,,,,12,baseline,Johns_Hopkins_R1.json,2022-07-20_15h54.11.100,johns_hopkins,/js/tasks/horizon/game_type_v3.xls,/js/tasks/horizon/media/johns_hopkins_instruct_slide_R1.csv,Horizon Task,3.2.5,MacIntel,60,0,horizon,Johns_Hopkins_R1.json,right,456,0.5368999999994912,0,7,7,7,1,0,h6,7,HR,60,70,UL,X
,,,,,,,12,baseline,Johns_Hopkins_R1.json,2022-07-20_15h54.11.100,johns_hopkins,/js/tasks/horizon/game_type_v3.xls,/js/tasks/horizon/media/johns_hopkins_instruct_slide_R1.csv,Horizon Task,3.2.5,MacIntel,60,0,horizon,Johns_Hopkins_R1.json,right,521,0.403599999999642,0,8,8,8,1,0,h6,8,HR,55,65,UL,X
,,,,,,,12,baseline,Johns_Hopkins_R1.json,2022-07-20_15h54.11.100,johns_hopkins,/js/tasks/horizon/game_type_v3.xls,/js/tasks/horizon/media/johns_hopkins_instruct_slide_R1.csv,Horizon Task,3.2.5,MacIntel,60,0,horizon,Johns_Hopkins_R1.json,right,576,0.2851000000005115,0,9,9,9,1,0,h6,9,HR,45,55,UL,X
,,,,,,,12,baseline,Johns_Hopkins_R1.json,2022-07-20_15h54.11.100,johns_hopkins,/js/tasks/horizon/game_type_v3.xls,/js/tasks/horizon/media/johns_hopkins_instruct_slide_R1.csv,Horizon Task,3.2.5,MacIntel,60,0,horizon,Johns_Hopkins_R1.json,left,598,1.1512000000001876,0,10,10,10,1,1,h1,0,LH,22,61,ER,L
,,,,,,,12,baseline,Johns_Hopkins_R1.json,2022-07-20_15h54.11.100,johns_hopkins,/js/tasks/horizon/game_type_v3.xls,/js/tasks/horizon/media/johns_hopkins_instruct_slide_R1.csv,Horizon Task,3.2.5,MacIntel,60,0,horizon,Johns_Hopkins_R1.json,right,661,1.087599999999611,0,11,11,11,1,1,h1,1,LH,46,63,ER,R
,,,,,,,12,baseline,Johns_Hopkins_R1.json,2022-07-20_15h54.11.100,johns_hopkins,/js/tasks/horizon/game_type_v3.xls,/js/tasks/horizon/media/johns_hopkins_instruct_slide_R1.csv,Horizon Task,3.2.5,MacIntel,60,0,horizon,Johns_Hopkins_R1.json,right,706,1.5849999999999795,0,12,12,12,1,1,h1,2,LH,12,45,ER,R
,,,,,,,12,baseline,Johns_Hopkins_R1.json,2022-07-20_15h54.11.100,johns_hopkins,/js/tasks/horizon/game_type_v3.xls,/js/tasks/horizon/media/johns_hopkins_instruct_slide_R1.csv,Horizon Task,3.2.5,MacIntel,60,0,horizon,Johns_Hopkins_R1.json,left,761,1.1999999999999886,0,13,13,13,1,1,h1,3,LH,55,44,ER,L
,,,,,,,12,baseline,Johns_Hopkins_R1.json,2022-07-20_15h54.11.100,johns_hopkins,/js/tasks/horizon/game_type_v3.xls,/js/tasks/horizon/media/johns_hopkins_instruct_slide_R1.csv,Horizon Task,3.2.5,MacIntel,60,0,horizon,Johns_Hopkins_R1.json,right,816,0.8022999999997751,0,14,14,14,1,1,h1,4,LH,25,55,ER,X
,,,,,,,12,baseline,Johns_Hopkins_R1.json,2022-07-20_15h54.11.100,johns_hopkins,/js/tasks/horizon/game_type_v3.xls,/js/tasks/horizon/media/johns_hopkins_instruct_slide_R1.csv,Horizon Task,3.2.5,MacIntel,60,0,horizon,Johns_Hopkins_R1.json,left,858,1.9207000000001813,0,15,15,15,1,2,h6,0,HL,42,27,EL,L
,,,,,,,12,baseline,Johns_Hopkins_R1.json,2022-07-20_15h54.11.100,johns_hopkins,/js/tasks/horizon/game_type_v3.xls,/js/tasks/horizon/media/johns_hopkins_instruct_slide_R1.csv,Horizon Task,3.2.5,MacIntel,60,0,horizon,Johns_Hopkins_R1.json,right,905,1.700600000000577,0,16,16,16,1,2,h6,1,HL,60,47,EL,R
,,,,,,,12,baseline,Johns_Hopkins_R1.json,2022-07-20_15h54.11.100,johns_hopkins,/js/tasks/horizon/game_type_v3.xls,/js/tasks/horizon/media/johns_hopkins_instruct_slide_R1.csv,Horizon Task,3.2.5,MacIntel,60,0,horizon,Johns_Hopkins_R1.json,left,974,0.9615000000000009,0,17,17,17,1,2,h6,2,HL,69,18,EL,L
,,,,,,,12,baseline,Johns_Hopkins_R1.json,2022-07-20_15h54.11.100,johns_hopkins,/js/tasks/horizon/game_type_v3.xls,/js/tasks/horizon/media/johns_hopkins_instruct_slide_R1.csv,Horizon Task,3.2.5,MacIntel,60,0,horizon,Johns_Hopkins_R1.json,right,980,1.2434999999999832,0,18,18,18,1,2,h6,3,HL,45,6,EL,R
,,,,,,,12,baseline,Johns_Hopkins_R1.json,2022-07-20_15h54.11.100,johns_hopkins,/js/tasks/horizon/game_type_v3.xls,/js/tasks/horizon/media/johns_hopkins_instruct_slide_R1.csv,Horizon Task,3.2.5,MacIntel,60,0,horizon,Johns_Hopkins_R1.json,left,1037,8.319800000000726,0,19,19,19,1,2,h6,4,HL,57,29,EL,X
,,,,,,,12,baseline,Johns_Hopkins_R1.json,2022-07-20_15h54.11.100,johns_hopkins,/js/tasks/horizon/game_type_v3.xls,/js/tasks/horizon/media/johns_hopkins_instruct_slide_R1.csv,Horizon Task,3.2.5,MacIntel,60,0,horizon,Johns_Hopkins_R1.json,left,1103,8.606199999999262,0,20,20,20,1,2,h6,5,HL,66,29,EL,X
,,,,,,,12,baseline,Johns_Hopkins_R1.json,2022-07-20_15h54.11.100,johns_hopkins,/js/tasks/horizon/game_type_v3.xls,/js/tasks/horizon/media/johns_hopkins_instruct_slide_R1.csv,Horizon Task,3.2.5,MacIntel,60,0,horizon,Johns_Hopkins_R1.json,left,1141,4.416100000000597,0,21,21,21,1,2,h6,6,HL,38,30,EL,X
,,,,,,,12,baseline,Johns_Hopkins_R1.json,2022-07-20_15h54.11.100,johns_hopkins,/js/tasks/horizon/game_type_v3.xls,/js/tasks/horizon/media/johns_hopkins_instruct_slide_R1.csv,Horizon Task,3.2.5,MacIntel,60,0,horizon,Johns_Hopkins_R1.json,right,1183,1.0786000000005629,0,22,22,22,1,2,h6,7,HL,61,42,EL,X
,,,,,,,12,baseline,Johns_Hopkins_R1.json,2022-07-20_15h54.11.100,johns_hopkins,/js/tasks/horizon/game_type_v3.xls,/js/tasks/horizon/media/johns_hopkins_instruct_slide_R1.csv,Horizon Task,3.2.5,MacIntel,60,0,horizon,Johns_Hopkins_R1.json,right,1239,7.243299999999806,0,23,23,23,1,2,h6,8,HL,63,56,EL,X
,,,,,,,12,baseline,Johns_Hopkins_R1.json,2022-07-20_15h54.11.100,johns_hopkins,/js/tasks/horizon/game_type_v3.xls,/js/tasks/horizon/media/johns_hopkins_instruct_slide_R1.csv,Horizon Task,3.2.5,MacIntel,60,0,horizon,Johns_Hopkins_R1.json,right,1245,1.8163999999994758,0,24,24,24,1,2,h6,9,HL,37,6,EL,X
,,,,,,,12,baseline,Johns_Hopkins_R1.json,2022-07-20_15h54.11.100,johns_hopkins,/js/tasks/horizon/game_type_v3.xls,/js/tasks/horizon/media/johns_hopkins_instruct_slide_R1.csv,Horizon Task,3.2.5,MacIntel,60,0,horizon,Johns_Hopkins_R1.json,right,1296,0.9358999999994353,0,25,25,25,1,3,h1,0,LH,20,51,EL,R
,,,,,,,12,baseline,Johns_Hopkins_R1.json,2022-07-20_15h54.11.100,johns_hopkins,/js/tasks/horizon/game_type_v3.xls,/js/tasks/horizon/media/johns_hopkins_instruct_slide_R1.csv,Horizon Task,3.2.5,MacIntel,60,0,horizon,Johns_Hopkins_R1.json,right,1337,2.298000000000002,0,26,26,26,1,3,h1,1,LH,24,41,EL,R
,,,,,,,12,baseline,Johns_Hopkins_R1.json,2022-07-20_15h54.11.100,johns_hopkins,/js/tasks/horizon/game_type_v3.xls,/js/tasks/horizon/media/johns_hopkins_instruct_slide_R1.csv,Horizon Task,3.2.5,MacIntel,60,0,horizon,Johns_Hopkins_R1.json,left,1388,2.1862999999998465,0,27,27,27,1,3,h1,2,LH,51,43,EL,L
,,,,,,,12,baseline,Johns_Hopkins_R1.json,2022-07-20_15h54.11.100,johns_hopkins,/js/tasks/horizon/game_type_v3.xls,/js/tasks/horizon/media/johns_hopkins_instruct_slide_R1.csv,Horizon Task,3.2.5,MacIntel,60,0,horizon,Johns_Hopkins_R1.json,left,1408,0.9485999999996579,0,28,28,28,1,3,h1,3,LH,20,74,EL,L
,,,,,,,12,baseline,Johns_Hopkins_R1.json,2022-07-20_15h54.11.100,johns_hopkins,/js/tasks/horizon/game_type_v3.xls,/js/tasks/horizon/media/johns_hopkins_instruct_slide_R1.csv,Horizon Task,3.2.5,MacIntel,60,0,horizon,Johns_Hopkins_R1.json,right,1462,5.9529999999999745,0,29,29,29,1,3,h1,4,LH,49,54,EL,X
,,,,,,,12,baseline,Johns_Hopkins_R1.json,2022-07-20_15h54.11.100,johns_hopkins,/js/tasks/horizon/game_type_v3.xls,/js/tasks/horizon/media/johns_hopkins_instruct_slide_R1.csv,Horizon Task,3.2.5,MacIntel,60,0,horizon,Johns_Hopkins_R1.json,left,40,4.80589999999944,,,,,,0,h1,0,LH,40,64,,L,0,0,0,0,1,40,52
,,,,,,,12,baseline,Johns_Hopkins_R1.json,2022-07-20_15h54.11.100,johns_hopkins,/js/tasks/horizon/game_type_v3.xls,/js/tasks/horizon/media/johns_hopkins_instruct_slide_R1.csv,Horizon Task,3.2.5,MacIntel,60,0,horizon,Johns_Hopkins_R1.json,left,84,2.0403999999994653,,,,,,0,h1,1,LH,44,48,,L,0,1,1,1,1,40,52
,,,,,,,12,baseline,Johns_Hopkins_R1.json,2022-07-20_15h54.11.100,johns_hopkins,/js/tasks/horizon/game_type_v3.xls,/js/tasks/horizon/media/johns_hopkins_instruct_slide_R1.csv,Horizon Task,3.2.5,MacIntel,60,0,horizon,Johns_Hopkins_R1.json,right,136,0.9649000000003412,,,,,,0,h1,2,LH,58,52,,R,0,2,2,2,1,40,52
,,,,,,,12,baseline,Johns_Hopkins_R1.json,2022-07-20_15h54.11.100,johns_hopkins,/js/tasks/horizon/game_type_v3.xls,/js/tasks/horizon/media/johns_hopkins_instruct_slide_R1.csv,Horizon Task,3.2.5,MacIntel,60,0,horizon,Johns_Hopkins_R1.json,left,176,1.170500000000004,,,,,,0,h1,3,LH,40,62,,L,0,3,3,3,1,40,52
,,,,,,,12,baseline,Johns_Hopkins_R1.json,2022-07-20_15h54.11.100,johns_hopkins,/js/tasks/horizon/game_type_v3.xls,/js/tasks/horizon/media/johns_hopkins_instruct_slide_R1.csv,Horizon Task,3.2.5,MacIntel,60,0,horizon,Johns_Hopkins_R1.json,right,216,1.482500000000016,,,,,,0,h1,4,LH,52,40,,X,0,4,4,4,1,40,52
,,,,,,,12,baseline,Johns_Hopkins_R1.json,2022-07-20_15h54.11.100,johns_hopkins,/js/tasks/horizon/game_type_v3.xls,/js/tasks/horizon/media/johns_hopkins_instruct_slide_R1.csv,Horizon Task,3.2.5,MacIntel,60,0,horizon,Johns_Hopkins_R1.json,right,274,3.480800000000727,,,,,,1,h6,0,LH,58,58,,R,0,5,5,5,1,60,64
,,,,,,,12,baseline,Johns_Hopkins_R1.json,2022-07-20_15h54.11.100,johns_hopkins,/js/tasks/horizon/game_type_v3.xls,/js/tasks/horizon/media/johns_hopkins_instruct_slide_R1.csv,Horizon Task,3.2.5,MacIntel,60,0,horizon,Johns_Hopkins_R1.json,left,333,1.4009000000003766,,,,,,1,h6,1,LH,59,60,,L,0,6,6,6,1,60,64
,,,,,,,12,baseline,Johns_Hopkins_R1.json,2022-07-20_15h54.11.100,johns_hopkins,/js/tasks/horizon/game_type_v3.xls,/js/tasks/horizon/media/johns_hopkins_instruct_slide_R1.csv,Horizon Task,3.2.5,MacIntel,60,0,horizon,Johns_Hopkins_R1.json,right,397,1.6863999999994235,,,,,,1,h6,2,LH,61,64,,R,0,7,7,7,1,60,64
,,,,,,,12,baseline,Johns_Hopkins_R1.json,2022-07-20_15h54.11.100,johns_hopkins,/js/tasks/horizon/game_type_v3.xls,/js/tasks/horizon/media/johns_hopkins_instruct_slide_R1.csv,Horizon Task,3.2.5,MacIntel,60,0,horizon,Johns_Hopkins_R1.json,right,460,1.5327000000001476,,,,,,1,h6,3,LH,55,63,,R,0,8,8,8,1,60,64
,,,,,,,12,baseline,Johns_Hopkins_R1.json,2022-07-20_15h54.11.100,johns_hopkins,/js/tasks/horizon/game_type_v3.xls,/js/tasks/horizon/media/johns_hopkins_instruct_slide_R1.csv,Horizon Task,3.2.5,MacIntel,60,0,horizon,Johns_Hopkins_R1.json,left,529,2.268099999999606,,,,,,1,h6,4,LH,69,69,,X,0,9,9,9,1,60,64
,,,,,,,12,baseline,Johns_Hopkins_R1.json,2022-07-20_15h54.11.100,johns_hopkins,/js/tasks/horizon/game_type_v3.xls,/js/tasks/horizon/media/johns_hopkins_instruct_slide_R1.csv,Horizon Task,3.2.5,MacIntel,60,0,horizon,Johns_Hopkins_R1.json,left,587,2.5085000000000264,,,,,,1,h6,5,LH,58,77,,X,0,10,10,10,1,60,64
,,,,,,,12,baseline,Johns_Hopkins_R1.json,2022-07-20_15h54.11.100,johns_hopkins,/js/tasks/horizon/game_type_v3.xls,/js/tasks/horizon/media/johns_hopkins_instruct_slide_R1.csv,Horizon Task,3.2.5,MacIntel,60,0,horizon,Johns_Hopkins_R1.json,right,634,3.6873999999994567,,,,,,1,h6,6,LH,51,47,,X,0,11,11,11,1,60,64
,,,,,,,12,baseline,Johns_Hopkins_R1.json,2022-07-20_15h54.11.100,johns_hopkins,/js/tasks/horizon/game_type_v3.xls,/js/tasks/horizon/media/johns_hopkins_instruct_slide_R1.csv,Horizon Task,3.2.5,MacIntel,60,0,horizon,Johns_Hopkins_R1.json,left,686,1.6462000000001353,,,,,,1,h6,7,LH,52,56,,X,0,12,12,12,1,60,64
,,,,,,,12,baseline,Johns_Hopkins_R1.json,2022-07-20_15h54.11.100,johns_hopkins,/js/tasks/horizon/game_type_v3.xls,/js/tasks/horizon/media/johns_hopkins_instruct_slide_R1.csv,Horizon Task,3.2.5,MacIntel,60,0,horizon,Johns_Hopkins_R1.json,left,748,2.115000000000009,,,,,,1,h6,8,LH,62,56,,X,0,13,13,13,1,60,64
,,,,,,,12,baseline,Johns_Hopkins_R1.json,2022-07-20_15h54.11.100,johns_hopkins,/js/tasks/horizon/game_type_v3.xls,/js/tasks/horizon/media/johns_hopkins_instruct_slide_R1.csv,Horizon Task,3.2.5,MacIntel,60,0,horizon,Johns_Hopkins_R1.json,left,809,1.3885999999996557,,,,,,1,h6,9,LH,61,72,,X,0,14,14,14,1,60,64
,,,,,,,12,baseline,Johns_Hopkins_R1.json,2022-07-20_15h54.11.100,johns_hopkins,/js/tasks/horizon/game_type_v3.xls,/js/tasks/horizon/media/johns_hopkins_instruct_slide_R1.csv,Horizon Task,3.2.5,MacIntel,60,0,horizon,Johns_Hopkins_R1.json,right,876,1.0683999999994285,,,,,,2,h1,0,LH,48,67,,R,0,15,15,15,1,40,70
,,,,,,,12,baseline,Johns_Hopkins_R1.json,2022-07-20_15h54.11.100,johns_hopkins,/js/tasks/horizon/game_type_v3.xls,/js/tasks/horizon/media/johns_hopkins_instruct_slide_R1.csv,Horizon Task,3.2.5,MacIntel,60,0,horizon,Johns_Hopkins_R1.json,left,923,1.8204999999999814,,,,,,2,h1,1,LH,47,62,,L,0,16,16,16,1,40,70
,,,,,,,12,baseline,Johns_Hopkins_R1.json,2022-07-20_15h54.11.100,johns_hopkins,/js/tasks/horizon/game_type_v3.xls,/js/tasks/horizon/media/johns_hopkins_instruct_slide_R1.csv,Horizon Task,3.2.5,MacIntel,60,0,horizon,Johns_Hopkins_R1.json,right,985,2.9984999999999786,,,,,,2,h1,2,LH,39,62,,R,0,17,17,17,1,40,70
,,,,,,,12,baseline,Johns_Hopkins_R1.json,2022-07-20_15h54.11.100,johns_hopkins,/js/tasks/horizon/game_type_v3.xls,/js/tasks/horizon/media/johns_hopkins_instruct_slide_R1.csv,Horizon Task,3.2.5,MacIntel,60,0,horizon,Johns_Hopkins_R1.json,left,1020,2.3182000000002176,,,,,,2,h1,3,LH,35,65,,L,0,18,18,18,1,40,70
,,,,,,,12,baseline,Johns_Hopkins_R1.json,2022-07-20_15h54.11.100,johns_hopkins,/js/tasks/horizon/game_type_v3.xls,/js/tasks/horizon/media/johns_hopkins_instruct_slide_R1.csv,Horizon Task,3.2.5,MacIntel,60,0,horizon,Johns_Hopkins_R1.json,right,1087,0.8035999999996193,,,,,,2,h1,4,LH,50,67,,X,0,19,19,19,1,40,70
,,,,,,,12,baseline,Johns_Hopkins_R1.json,2022-07-20_15h54.11.100,johns_hopkins,/js/tasks/horizon/game_type_v3.xls,/js/tasks/horizon/media/johns_hopkins_instruct_slide_R1.csv,Horizon Task,3.2.5,MacIntel,60,0,horizon,Johns_Hopkins_R1.json,right,1131,1.0410999999996307,,,,,,3,h1,0,LH,31,44,,R,0,20,20,20,1,28,40
,,,,,,,12,baseline,Johns_Hopkins_R1.json,2022-07-20_15h54.11.100,johns_hopkins,/js/tasks/horizon/game_type_v3.xls,/js/tasks/horizon/media/johns_hopkins_instruct_slide_R1.csv,Horizon Task,3.2.5,MacIntel,60,0,horizon,Johns_Hopkins_R1.json,left,1158,1.4030999999996538,,,,,,3,h1,1,LH,27,54,,L,0,21,21,21,1,28,40
,,,,,,,12,baseline,Johns_Hopkins_R1.json,2022-07-20_15h54.11.100,johns_hopkins,/js/tasks/horizon/game_type_v3.xls,/js/tasks/horizon/media/johns_hopkins_instruct_slide_R1.csv,Horizon Task,3.2.5,MacIntel,60,0,horizon,Johns_Hopkins_R1.json,right,1197,1.5552999999998178,,,,,,3,h1,2,LH,25,39,,R,0,22,22,22,1,28,40
,,,,,,,12,baseline,Johns_Hopkins_R1.json,2022-07-20_15h54.11.100,johns_hopkins,/js/tasks/horizon/game_type_v3.xls,/js/tasks/horizon/media/johns_hopkins_instruct_slide_R1.csv,Horizon Task,3.2.5,MacIntel,60,0,horizon,Johns_Hopkins_R1.json,left,1226,1.5311999999992736,,,,,,3,h1,3,LH,29,30,,L,0,23,23,23,1,28,40
,,,,,,,12,baseline,Johns_Hopkins_R1.json,2022-07-20_15h54.11.100,johns_hopkins,/js/tasks/horizon/game_type_v3.xls,/js/tasks/horizon/media/johns_hopkins_instruct_slide_R1.csv,Horizon Task,3.2.5,MacIntel,60,0,horizon,Johns_Hopkins_R1.json,right,1273,0.7900000000000205,,,,,,3,h1,4,LH,29,47,,X,0,24,24,24,1,28,40
,,,,,,,12,baseline,Johns_Hopkins_R1.json,2022-07-20_15h54.11.100,johns_hopkins,/js/tasks/horizon/game_type_v3.xls,/js/tasks/horizon/media/johns_hopkins_instruct_slide_R1.csv,Horizon Task,3.2.5,MacIntel,60,0,horizon,Johns_Hopkins_R1.json,right,1295,0.694500000000005,,,,,,4,h1,0,HL,67,22,,R,0,25,25,25,1,60,30
,,,,,,,12,baseline,Johns_Hopkins_R1.json,2022-07-20_15h54.11.100,johns_hopkins,/js/tasks/horizon/game_type_v3.xls,/js/tasks/horizon/media/johns_hopkins_instruct_slide_R1.csv,Horizon Task,3.2.5,MacIntel,60,0,horizon,Johns_Hopkins_R1.json,right,1333,1.4053999999994176,,,,,,4,h1,1,HL,55,38,,R,0,26,26,26,1,60,30
,,,,,,,12,baseline,Johns_Hopkins_R1.json,2022-07-20_15h54.11.100,johns_hopkins,/js/tasks/horizon/game_type_v3.xls,/js/tasks/horizon/media/johns_hopkins_instruct_slide_R1.csv,Horizon Task,3.2.5,MacIntel,60,0,horizon,Johns_Hopkins_R1.json,right,1367,1.2376000000005547,,,,,,4,h1,2,HL,83,34,,R,0,27,27,27,1,60,30
,,,,,,,12,baseline,Johns_Hopkins_R1.json,2022-07-20_15h54.11.100,johns_hopkins,/js/tasks/horizon/game_type_v3.xls,/js/tasks/horizon/media/johns_hopkins_instruct_slide_R1.csv,Horizon Task,3.2.5,MacIntel,60,0,horizon,Johns_Hopkins_R1.json,left,1434,1.1958999999994262,,,,,,4,h1,3,HL,67,27,,L,0,28,28,28,1,60,30
,,,,,,,12,baseline,Johns_Hopkins_R1.json,2022-07-20_15h54.11.100,johns_hopkins,/js/tasks/horizon/game_type_v3.xls,/js/tasks/horizon/media/johns_hopkins_instruct_slide_R1.csv,Horizon Task,3.2.5,MacIntel,60,0,horizon,Johns_Hopkins_R1.json,left,1498,0.715799999999831,,,,,,4,h1,4,HL,64,30,,X,0,29,29,29,1,60,30
,,,,,,,12,baseline,Johns_Hopkins_R1.json,2022-07-20_15h54.11.100,johns_hopkins,/js/tasks/horizon/game_type_v3.xls,/js/tasks/horizon/media/johns_hopkins_instruct_slide_R1.csv,Horizon Task,3.2.5,MacIntel,60,0,horizon,Johns_Hopkins_R1.json,left,1573,2.115000000000009,,,,,,5,h1,0,HL,75,55,,L,0,30,30,30,1,72,60
,,,,,,,12,baseline,Johns_Hopkins_R1.json,2022-07-20_15h54.11.100,johns_hopkins,/js/tasks/horizon/game_type_v3.xls,/js/tasks/horizon/media/johns_hopkins_instruct_slide_R1.csv,Horizon Task,3.2.5,MacIntel,60,0,horizon,Johns_Hopkins_R1.json,right,1648,1.2889999999999873,,,,,,5,h1,1,HL,62,75,,R,0,31,31,31,1,72,60
,,,,,,,12,baseline,Johns_Hopkins_R1.json,2022-07-20_15h54.11.100,johns_hopkins,/js/tasks/horizon/game_type_v3.xls,/js/tasks/horizon/media/johns_hopkins_instruct_slide_R1.csv,Horizon Task,3.2.5,MacIntel,60,0,horizon,Johns_Hopkins_R1.json,left,1717,1.6288999999994758,,,,,,5,h1,2,HL,69,58,,L,0,32,32,32,1,72,60
,,,,,,,12,baseline,Johns_Hopkins_R1.json,2022-07-20_15h54.11.100,johns_hopkins,/js/tasks/horizon/game_type_v3.xls,/js/tasks/horizon/media/johns_hopkins_instruct_slide_R1.csv,Horizon Task,3.2.5,MacIntel,60,0,horizon,Johns_Hopkins_R1.json,right,1767,1.1765999999996097,,,,,,5,h1,3,HL,69,50,,R,0,33,33,33,1,72,60
,,,,,,,12,baseline,Johns_Hopkins_R1.json,2022-07-20_15h54.11.100,johns_hopkins,/js/tasks/horizon/game_type_v3.xls,/js/tasks/horizon/media/johns_hopkins_instruct_slide_R1.csv,Horizon Task,3.2.5,MacIntel,60,0,horizon,Johns_Hopkins_R1.json,left,1848,1.846700000000169,,,,,,5,h1,4,HL,81,50,,X,0,34,34,34,1,72,60
,,,,,,,12,baseline,Johns_Hopkins_R1.json,2022-07-20_15h54.11.100,johns_hopkins,/js/tasks/horizon/game_type_v3.xls,/js/tasks/horizon/media/johns_hopkins_instruct_slide_R1.csv,Horizon Task,3.2.5,MacIntel,60,0,horizon,Johns_Hopkins_R1.json,right,1914,0.9964999999999691,,,,,,6,h1,0,HL,62,66,,R,0,35,35,35,1,68,60
,,,,,,,12,baseline,Johns_Hopkins_R1.json,2022-07-20_15h54.11.100,johns_hopkins,/js/tasks/horizon/game_type_v3.xls,/js/tasks/horizon/media/johns_hopkins_instruct_slide_R1.csv,Horizon Task,3.2.5,MacIntel,60,0,horizon,Johns_Hopkins_R1.json,left,1990,1.7013000000007423,,,,,,6,h1,1,HL,76,44,,L,0,36,36,36,1,68,60
,,,,,,,12,baseline,Johns_Hopkins_R1.json,2022-07-20_15h54.11.100,johns_hopkins,/js/tasks/horizon/game_type_v3.xls,/js/tasks/horizon/media/johns_hopkins_instruct_slide_R1.csv,Horizon Task,3.2.5,MacIntel,60,0,horizon,Johns_Hopkins_R1.json,left,2050,1.650000000000034,,,,,,6,h1,2,HL,60,51,,L,0,37,37,37,1,68,60
,,,,,,,12,baseline,Johns_Hopkins_R1.json,2022-07-20_15h54.11.100,johns_hopkins,/js/tasks/horizon/game_type_v3.xls,/js/tasks/horizon/media/johns_hopkins_instruct_slide_R1.csv,Horizon Task,3.2.5,MacIntel,60,0,horizon,Johns_Hopkins_R1.json,right,2104,1.4568999999994503,,,,,,6,h1,3,HL,57,54,,R,0,38,38,38,1,68,60
,,,,,,,12,baseline,Johns_Hopkins_R1.json,2022-07-20_15h54.11.100,johns_hopkins,/js/tasks/horizon/game_type_v3.xls,/js/tasks/horizon/media/johns_hopkins_instruct_slide_R1.csv,Horizon Task,3.2.5,MacIntel,60,0,horizon,Johns_Hopkins_R1.json,left,2167,1.108099999999638,,,,,,6,h1,4,HL,63,47,,X,0,39,39,39,1,68,60
,,,,,,,12,baseline,Johns_Hopkins_R1.json,2022-07-20_15h54.11.100,johns_hopkins,/js/tasks/horizon/game_type_v3.xls,/js/tasks/horizon/media/johns_hopkins_instruct_slide_R1.csv,Horizon Task,3.2.5,MacIntel,60,0,horizon,Johns_Hopkins_R1.json,left,2206,0.8457999999998265,,,,,,7,h1,0,HL,39,32,,L,0,40,40,40,1,44,40
,,,,,,,12,baseline,Johns_Hopkins_R1.json,2022-07-20_15h54.11.100,johns_hopkins,/js/tasks/horizon/game_type_v3.xls,/js/tasks/horizon/media/johns_hopkins_instruct_slide_R1.csv,Horizon Task,3.2.5,MacIntel,60,0,horizon,Johns_Hopkins_R1.json,left,2255,1.9772000000002095,,,,,,7,h1,1,HL,49,52,,L,0,41,41,41,1,44,40
,,,,,,,12,baseline,Johns_Hopkins_R1.json,2022-07-20_15h54.11.100,johns_hopkins,/js/tasks/horizon/game_type_v3.xls,/js/tasks/horizon/media/johns_hopkins_instruct_slide_R1.csv,Horizon Task,3.2.5,MacIntel,60,0,horizon,Johns_Hopkins_R1.json,left,2294,1.5407999999998196,,,,,,7,h1,2,HL,39,32,,L,0,42,42,42,1,44,40
,,,,,,,12,baseline,Johns_Hopkins_R1.json,2022-07-20_15h54.11.100,johns_hopkins,/js/tasks/horizon/game_type_v3.xls,/js/tasks/horizon/media/johns_hopkins_instruct_slide_R1.csv,Horizon Task,3.2.5,MacIntel,60,0,horizon,Johns_Hopkins_R1.json,right,2341,1.624400000000378,,,,,,7,h1,3,HL,36,47,,R,0,43,43,43,1,44,40
,,,,,,,12,baseline,Johns_Hopkins_R1.json,2022-07-20_15h54.11.100,johns_hopkins,/js/tasks/horizon/game_type_v3.xls,/js/tasks/horizon/media/johns_hopkins_instruct_slide_R1.csv,Horizon Task,3.2.5,MacIntel,60,0,horizon,Johns_Hopkins_R1.json,left,2380,4.505300000000716,,,,,,7,h1,4,HL,39,37,,X,0,44,44,44,1,44,40
,,,,,,,12,baseline,Johns_Hopkins_R1.json,2022-07-20_15h54.11.100,johns_hopkins,/js/tasks/horizon/game_type_v3.xls,/js/tasks/horizon/media/johns_hopkins_instruct_slide_R1.csv,Horizon Task,3.2.5,MacIntel,60,0,horizon,Johns_Hopkins_R1.json,left,2476,2.0517999999998437,,,,,,8,h6,0,HL,96,65,,L,0,45,45,45,1,90,60
,,,,,,,12,baseline,Johns_Hopkins_R1.json,2022-07-20_15h54.11.100,johns_hopkins,/js/tasks/horizon/game_type_v3.xls,/js/tasks/horizon/media/johns_hopkins_instruct_slide_R1.csv,Horizon Task,3.2.5,MacIntel,60,0,horizon,Johns_Hopkins_R1.json,left,2564,1.6301999999992631,,,,,,8,h6,1,HL,88,57,,L,0,46,46,46,1,90,60
,,,,,,,12,baseline,Johns_Hopkins_R1.json,2022-07-20_15h54.11.100,johns_hopkins,/js/tasks/horizon/game_type_v3.xls,/js/tasks/horizon/media/johns_hopkins_instruct_slide_R1.csv,Horizon Task,3.2.5,MacIntel,60,0,horizon,Johns_Hopkins_R1.json,right,2623,1.1720000000000255,,,,,,8,h6,2,HL,84,59,,R,0,47,47,47,1,90,60
,,,,,,,12,baseline,Johns_Hopkins_R1.json,2022-07-20_15h54.11.100,johns_hopkins,/js/tasks/horizon/game_type_v3.xls,/js/tasks/horizon/media/johns_hopkins_instruct_slide_R1.csv,Horizon Task,3.2.5,MacIntel,60,0,horizon,Johns_Hopkins_R1.json,right,2690,1.372599999999693,,,,,,8,h6,3,HL,76,67,,R,0,48,48,48,1,90,60
,,,,,,,12,baseline,Johns_Hopkins_R1.json,2022-07-20_15h54.11.100,johns_hopkins,/js/tasks/horizon/game_type_v3.xls,/js/tasks/horizon/media/johns_hopkins_instruct_slide_R1.csv,Horizon Task,3.2.5,MacIntel,60,0,horizon,Johns_Hopkins_R1.json,left,2789,1.5004000000003543,,,,,,8,h6,4,HL,99,71,,X,0,49,49,49,1,90,60
,,,,,,,12,baseline,Johns_Hopkins_R1.json,2022-07-20_15h54.11.100,johns_hopkins,/js/tasks/horizon/game_type_v3.xls,/js/tasks/horizon/media/johns_hopkins_instruct_slide_R1.csv,Horizon Task,3.2.5,MacIntel,60,0,horizon,Johns_Hopkins_R1.json,left,2881,1.009400000000369,,,,,,8,h6,5,HL,92,41,,X,0,50,50,50,1,90,60
,,,,,,,12,baseline,Johns_Hopkins_R1.json,2022-07-20_15h54.11.100,johns_hopkins,/js/tasks/horizon/game_type_v3.xls,/js/tasks/horizon/media/johns_hopkins_instruct_slide_R1.csv,Horizon Task,3.2.5,MacIntel,60,0,horizon,Johns_Hopkins_R1.json,left,2962,0.27100000000007185,,,,,,8,h6,6,HL,81,65,,X,0,51,51,51,1,90,60
,,,,,,,12,baseline,Johns_Hopkins_R1.json,2022-07-20_15h54.11.100,johns_hopkins,/js/tasks/horizon/game_type_v3.xls,/js/tasks/horizon/media/johns_hopkins_instruct_slide_R1.csv,Horizon Task,3.2.5,MacIntel,60,0,horizon,Johns_Hopkins_R1.json,left,3057,0.1476000000005797,,,,,,8,h6,7,HL,95,52,,X,0,52,52,52,1,90,60
,,,,,,,12,baseline,Johns_Hopkins_R1.json,2022-07-20_15h54.11.100,johns_hopkins,/js/tasks/horizon/game_type_v3.xls,/js/tasks/horizon/media/johns_hopkins_instruct_slide_R1.csv,Horizon Task,3.2.5,MacIntel,60,0,horizon,Johns_Hopkins_R1.json,left,3147,0.14080000000069504,,,,,,8,h6,8,HL,90,70,,X,0,53,53,53,1,90,60
,,,,,,,12,baseline,Johns_Hopkins_R1.json,2022-07-20_15h54.11.100,johns_hopkins,/js/tasks/horizon/game_type_v3.xls,/js/tasks/horizon/media/johns_hopkins_instruct_slide_R1.csv,Horizon Task,3.2.5,MacIntel,60,0,horizon,Johns_Hopkins_R1.json,left,3246,0.15159999999968932,,,,,,8,h6,9,HL,99,56,,X,0,54,54,54,1,90,60
,,,,,,,12,baseline,Johns_Hopkins_R1.json,2022-07-20_15h54.11.100,johns_hopkins,/js/tasks/horizon/game_type_v3.xls,/js/tasks/horizon/media/johns_hopkins_instruct_slide_R1.csv,Horizon Task,3.2.5,MacIntel,60,0,horizon,Johns_Hopkins_R1.json,right,3282,0.5573999999994612,,,,,,9,h6,0,HL,39,36,,R,0,55,55,55,1,40,36
,,,,,,,12,baseline,Johns_Hopkins_R1.json,2022-07-20_15h54.11.100,johns_hopkins,/js/tasks/horizon/game_type_v3.xls,/js/tasks/horizon/media/johns_hopkins_instruct_slide_R1.csv,Horizon Task,3.2.5,MacIntel,60,0,horizon,Johns_Hopkins_R1.json,right,3303,1.0550999999996975,,,,,,9,h6,1,HL,31,21,,R,0,56,56,56,1,40,36
,,,,,,,12,baseline,Johns_Hopkins_R1.json,2022-07-20_15h54.11.100,johns_hopkins,/js/tasks/horizon/game_type_v3.xls,/js/tasks/horizon/media/johns_hopkins_instruct_slide_R1.csv,Horizon Task,3.2.5,MacIntel,60,0,horizon,Johns_Hopkins_R1.json,left,3349,0.887400000000298,,,,,,9,h6,2,HL,46,27,,L,0,57,57,57,1,40,36
,,,,,,,12,baseline,Johns_Hopkins_R1.json,2022-07-20_15h54.11.100,johns_hopkins,/js/tasks/horizon/game_type_v3.xls,/js/tasks/horizon/media/johns_hopkins_instruct_slide_R1.csv,Horizon Task,3.2.5,MacIntel,60,0,horizon,Johns_Hopkins_R1.json,left,3375,0.9841000000004669,,,,,,9,h6,3,HL,26,50,,L,0,58,58,58,1,40,36
,,,,,,,12,baseline,Johns_Hopkins_R1.json,2022-07-20_15h54.11.100,johns_hopkins,/js/tasks/horizon/game_type_v3.xls,/js/tasks/horizon/media/johns_hopkins_instruct_slide_R1.csv,Horizon Task,3.2.5,MacIntel,60,0,horizon,Johns_Hopkins_R1.json,right,3403,2.4333000000007132,,,,,,9,h6,4,HL,41,28,,X,0,59,59,59,1,40,36
,,,,,,,12,baseline,Johns_Hopkins_R1.json,2022-07-20_15h54.11.100,johns_hopkins,/js/tasks/horizon/game_type_v3.xls,/js/tasks/horizon/media/johns_hopkins_instruct_slide_R1.csv,Horizon Task,3.2.5,MacIntel,60,0,horizon,Johns_Hopkins_R1.json,left,3438,0.869099999999662,,,,,,9,h6,5,HL,35,37,,X,0,60,60,60,1,40,36
,,,,,,,12,baseline,Johns_Hopkins_R1.json,2022-07-20_15h54.11.100,johns_hopkins,/js/tasks/horizon/game_type_v3.xls,/js/tasks/horizon/media/johns_hopkins_instruct_slide_R1.csv,Horizon Task,3.2.5,MacIntel,60,0,horizon,Johns_Hopkins_R1.json,left,3474,0.7880999999996448,,,,,,9,h6,6,HL,36,38,,X,0,61,61,61,1,40,36
,,,,,,,12,baseline,Johns_Hopkins_R1.json,2022-07-20_15h54.11.100,johns_hopkins,/js/tasks/horizon/game_type_v3.xls,/js/tasks/horizon/media/johns_hopkins_instruct_slide_R1.csv,Horizon Task,3.2.5,MacIntel,60,0,horizon,Johns_Hopkins_R1.json,left,3520,0.24729999999976826,,,,,,9,h6,7,HL,46,22,,X,0,62,62,62,1,40,36
,,,,,,,12,baseline,Johns_Hopkins_R1.json,2022-07-20_15h54.11.100,johns_hopkins,/js/tasks/horizon/game_type_v3.xls,/js/tasks/horizon/media/johns_hopkins_instruct_slide_R1.csv,Horizon Task,3.2.5,MacIntel,60,0,horizon,Johns_Hopkins_R1.json,left,3555,0.09939999999949123,,,,,,9,h6,8,HL,35,32,,X,0,63,63,63,1,40,36
,,,,,,,12,baseline,Johns_Hopkins_R1.json,2022-07-20_15h54.11.100,johns_hopkins,/js/tasks/horizon/game_type_v3.xls,/js/tasks/horizon/media/johns_hopkins_instruct_slide_R1.csv,Horizon Task,3.2.5,MacIntel,60,0,horizon,Johns_Hopkins_R1.json,left,3592,0.13179999999988468,,,,,,9,h6,9,HL,37,30,,X,0,64,64,64,1,40,36
,,,,,,,12,baseline,Johns_Hopkins_R1.json,2022-07-20_15h54.11.100,johns_hopkins,/js/tasks/horizon/game_type_v3.xls,/js/tasks/horizon/media/johns_hopkins_instruct_slide_R1.csv,Horizon Task,3.2.5,MacIntel,60,0,horizon,Johns_Hopkins_R1.json,right,3638,1.6197000000001935,,,,,,10,h1,0,HL,70,46,,R,0,65,65,65,1,60,40
,,,,,,,12,baseline,Johns_Hopkins_R1.json,2022-07-20_15h54.11.100,johns_hopkins,/js/tasks/horizon/game_type_v3.xls,/js/tasks/horizon/media/johns_hopkins_instruct_slide_R1.csv,Horizon Task,3.2.5,MacIntel,60,0,horizon,Johns_Hopkins_R1.json,right,3674,1.7218999999995503,,,,,,10,h1,1,HL,54,36,,R,0,66,66,66,1,60,40
,,,,,,,12,baseline,Johns_Hopkins_R1.json,2022-07-20_15h54.11.100,johns_hopkins,/js/tasks/horizon/game_type_v3.xls,/js/tasks/horizon/media/johns_hopkins_instruct_slide_R1.csv,Horizon Task,3.2.5,MacIntel,60,0,horizon,Johns_Hopkins_R1.json,right,3700,0.9454000000004044,,,,,,10,h1,2,HL,46,26,,R,0,67,67,67,1,60,40
,,,,,,,12,baseline,Johns_Hopkins_R1.json,2022-07-20_15h54.11.100,johns_hopkins,/js/tasks/horizon/game_type_v3.xls,/js/tasks/horizon/media/johns_hopkins_instruct_slide_R1.csv,Horizon Task,3.2.5,MacIntel,60,0,horizon,Johns_Hopkins_R1.json,left,3768,0.7675000000000409,,,,,,10,h1,3,HL,68,32,,L,0,68,68,68,1,60,40
,,,,,,,12,baseline,Johns_Hopkins_R1.json,2022-07-20_15h54.11.100,johns_hopkins,/js/tasks/horizon/game_type_v3.xls,/js/tasks/horizon/media/johns_hopkins_instruct_slide_R1.csv,Horizon Task,3.2.5,MacIntel,60,0,horizon,Johns_Hopkins_R1.json,left,3829,0.38479999999981374,,,,,,10,h1,4,HL,61,46,,X,0,69,69,69,1,60,40
,,,,,,,12,baseline,Johns_Hopkins_R1.json,2022-07-20_15h54.11.100,johns_hopkins,/js/tasks/horizon/game_type_v3.xls,/js/tasks/horizon/media/johns_hopkins_instruct_slide_R1.csv,Horizon Task,3.2.5,MacIntel,60,0,horizon,Johns_Hopkins_R1.json,right,3840,0.6486000000005561,,,,,,11,h1,0,HL,30,11,,R,0,70,70,70,1,40,10
,,,,,,,12,baseline,Johns_Hopkins_R1.json,2022-07-20_15h54.11.100,johns_hopkins,/js/tasks/horizon/game_type_v3.xls,/js/tasks/horizon/media/johns_hopkins_instruct_slide_R1.csv,Horizon Task,3.2.5,MacIntel,60,0,horizon,Johns_Hopkins_R1.json,left,3879,0.8701000000005479,,,,,,11,h1,1,HL,39,7,,L,0,71,71,71,1,40,10
,,,,,,,12,baseline,Johns_Hopkins_R1.json,2022-07-20_15h54.11.100,johns_hopkins,/js/tasks/horizon/game_type_v3.xls,/js/tasks/horizon/media/johns_hopkins_instruct_slide_R1.csv,Horizon Task,3.2.5,MacIntel,60,0,horizon,Johns_Hopkins_R1.json,right,3880,0.84699999999998,,,,,,11,h1,2,HL,45,1,,R,0,72,72,72,1,40,10
,,,,,,,12,baseline,Johns_Hopkins_R1.json,2022-07-20_15h54.11.100,johns_hopkins,/js/tasks/horizon/game_type_v3.xls,/js/tasks/horizon/media/johns_hopkins_instruct_slide_R1.csv,Horizon Task,3.2.5,MacIntel,60,0,horizon,Johns_Hopkins_R1.json,left,3914,1.2541999999992868,,,,,,11,h1,3,HL,34,9,,L,0,73,73,73,1,40,10
,,,,,,,12,baseline,Johns_Hopkins_R1.json,2022-07-20_15h54.11.100,johns_hopkins,/js/tasks/horizon/game_type_v3.xls,/js/tasks/horizon/media/johns_hopkins_instruct_slide_R1.csv,Horizon Task,3.2.5,MacIntel,60,0,horizon,Johns_Hopkins_R1.json,left,3947,0.5872000000001663,,,,,,11,h1,4,HL,33,19,,X,0,74,74,74,1,40,10
,,,,,,,12,baseline,Johns_Hopkins_R1.json,2022-07-20_15h54.11.100,johns_hopkins,/js/tasks/horizon/game_type_v3.xls,/js/tasks/horizon/media/johns_hopkins_instruct_slide_R1.csv,Horizon Task,3.2.5,MacIntel,60,0,horizon,Johns_Hopkins_R1.json,right,4027,0.9505999999995538,,,,,,12,h6,0,LH,27,80,,R,0,75,75,75,1,30,60
,,,,,,,12,baseline,Johns_Hopkins_R1.json,2022-07-20_15h54.11.100,johns_hopkins,/js/tasks/horizon/game_type_v3.xls,/js/tasks/horizon/media/johns_hopkins_instruct_slide_R1.csv,Horizon Task,3.2.5,MacIntel,60,0,horizon,Johns_Hopkins_R1.json,right,4088,2.4711999999992713,,,,,,12,h6,1,LH,40,61,,R,0,76,76,76,1,30,60
,,,,,,,12,baseline,Johns_Hopkins_R1.json,2022-07-20_15h54.11.100,johns_hopkins,/js/tasks/horizon/game_type_v3.xls,/js/tasks/horizon/media/johns_hopkins_instruct_slide_R1.csv,Horizon Task,3.2.5,MacIntel,60,0,horizon,Johns_Hopkins_R1.json,left,4108,2.563399999999433,,,,,,12,h6,2,LH,20,58,,L,0,77,77,77,1,30,60
,,,,,,,12,baseline,Johns_Hopkins_R1.json,2022-07-20_15h54.11.100,johns_hopkins,/js/tasks/horizon/game_type_v3.xls,/js/tasks/horizon/media/johns_hopkins_instruct_slide_R1.csv,Horizon Task,3.2.5,MacIntel,60,0,horizon,Johns_Hopkins_R1.json,left,4133,1.1377999999998565,,,,,,12,h6,3,LH,25,65,,L,0,78,78,78,1,30,60
,,,,,,,12,baseline,Johns_Hopkins_R1.json,2022-07-20_15h54.11.100,johns_hopkins,/js/tasks/horizon/game_type_v3.xls,/js/tasks/horizon/media/johns_hopkins_instruct_slide_R1.csv,Horizon Task,3.2.5,MacIntel,60,0,horizon,Johns_Hopkins_R1.json,right,4193,0.7135000000000673,,,,,,12,h6,4,LH,34,60,,X,0,79,79,79,1,30,60
,,,,,,,12,baseline,Johns_Hopkins_R1.json,2022-07-20_15h54.11.100,johns_hopkins,/js/tasks/horizon/game_type_v3.xls,/js/tasks/horizon/media/johns_hopkins_instruct_slide_R1.csv,Horizon Task,3.2.5,MacIntel,60,0,horizon,Johns_Hopkins_R1.json,right,4246,1.171900000000278,,,,,,12,h6,5,LH,33,53,,X,0,80,80,80,1,30,60
,,,,,,,12,baseline,Johns_Hopkins_R1.json,2022-07-20_15h54.11.100,johns_hopkins,/js/tasks/horizon/game_type_v3.xls,/js/tasks/horizon/media/johns_hopkins_instruct_slide_R1.csv,Horizon Task,3.2.5,MacIntel,60,0,horizon,Johns_Hopkins_R1.json,right,4319,0.6318999999994048,,,,,,12,h6,6,LH,33,73,,X,0,81,81,81,1,30,60
,,,,,,,12,baseline,Johns_Hopkins_R1.json,2022-07-20_15h54.11.100,johns_hopkins,/js/tasks/horizon/game_type_v3.xls,/js/tasks/horizon/media/johns_hopkins_instruct_slide_R1.csv,Horizon Task,3.2.5,MacIntel,60,0,horizon,Johns_Hopkins_R1.json,right,4364,0.31689999999946394,,,,,,12,h6,7,LH,18,45,,X,0,82,82,82,1,30,60
,,,,,,,12,baseline,Johns_Hopkins_R1.json,2022-07-20_15h54.11.100,johns_hopkins,/js/tasks/horizon/game_type_v3.xls,/js/tasks/horizon/media/johns_hopkins_instruct_slide_R1.csv,Horizon Task,3.2.5,MacIntel,60,0,horizon,Johns_Hopkins_R1.json,right,4432,0.18200000000001637,,,,,,12,h6,8,LH,37,68,,X,0,83,83,83,1,30,60
,,,,,,,12,baseline,Johns_Hopkins_R1.json,2022-07-20_15h54.11.100,johns_hopkins,/js/tasks/horizon/game_type_v3.xls,/js/tasks/horizon/media/johns_hopkins_instruct_slide_R1.csv,Horizon Task,3.2.5,MacIntel,60,0,horizon,Johns_Hopkins_R1.json,right,4492,0.23809999999957654,,,,,,12,h6,9,LH,33,60,,X,0,84,84,84,1,30,60
,,,,,,,12,baseline,Johns_Hopkins_R1.json,2022-07-20_15h54.11.100,johns_hopkins,/js/tasks/horizon/game_type_v3.xls,/js/tasks/horizon/media/johns_hopkins_instruct_slide_R1.csv,Horizon Task,3.2.5,MacIntel,60,0,horizon,Johns_Hopkins_R1.json,right,4550,0.7325000000000728,,,,,,13,h6,0,LH,58,58,,R,0,85,85,85,1,60,64
,,,,,,,12,baseline,Johns_Hopkins_R1.json,2022-07-20_15h54.11.100,johns_hopkins,/js/tasks/horizon/game_type_v3.xls,/js/tasks/horizon/media/johns_hopkins_instruct_slide_R1.csv,Horizon Task,3.2.5,MacIntel,60,0,horizon,Johns_Hopkins_R1.json,left,4609,0.7200999999995474,,,,,,13,h6,1,LH,59,60,,L,0,86,86,86,1,60,64
,,,,,,,12,baseline,Johns_Hopkins_R1.json,2022-07-20_15h54.11.100,johns_hopkins,/js/tasks/horizon/game_type_v3.xls,/js/tasks/horizon/media/johns_hopkins_instruct_slide_R1.csv,Horizon Task,3.2.5,MacIntel,60,0,horizon,Johns_Hopkins_R1.json,right,4673,0.6218000000008033,,,,,,13,h6,2,LH,61,64,,R,0,87,87,87,1,60,64
,,,,,,,12,baseline,Johns_Hopkins_R1.json,2022-07-20_15h54.11.100,johns_hopkins,/js/tasks/horizon/game_type_v3.xls,/js/tasks/horizon/media/johns_hopkins_instruct_slide_R1.csv,Horizon Task,3.2.5,MacIntel,60,0,horizon,Johns_Hopkins_R1.json,right,4734,0.4817999999997937,,,,,,13,h6,3,LH,55,61,,R,0,88,88,88,1,60,64
,,,,,,,12,baseline,Johns_Hopkins_R1.json,2022-07-20_15h54.11.100,johns_hopkins,/js/tasks/horizon/game_type_v3.xls,/js/tasks/horizon/media/johns_hopkins_instruct_slide_R1.csv,Horizon Task,3.2.5,MacIntel,60,0,horizon,Johns_Hopkins_R1.json,left,4807,2.09699999999998,,,,,,13,h6,4,LH,73,70,,X,0,89,89,89,1,60,64
,,,,,,,12,baseline,Johns_Hopkins_R1.json,2022-07-20_15h54.11.100,johns_hopkins,/js/tasks/horizon/game_type_v3.xls,/js/tasks/horizon/media/johns_hopkins_instruct_slide_R1.csv,Horizon Task,3.2.5,MacIntel,60,0,horizon,Johns_Hopkins_R1.json,right,4866,2.087599999999725,,,,,,13,h6,5,LH,69,59,,X,0,90,90,90,1,60,64
,,,,,,,12,baseline,Johns_Hopkins_R1.json,2022-07-20_15h54.11.100,johns_hopkins,/js/tasks/horizon/game_type_v3.xls,/js/tasks/horizon/media/johns_hopkins_instruct_slide_R1.csv,Horizon Task,3.2.5,MacIntel,60,0,horizon,Johns_Hopkins_R1.json,left,4924,1.1992000000002463,,,,,,13,h6,6,LH,58,75,,X,0,91,91,91,1,60,64
,,,,,,,12,baseline,Johns_Hopkins_R1.json,2022-07-20_15h54.11.100,johns_hopkins,/js/tasks/horizon/game_type_v3.xls,/js/tasks/horizon/media/johns_hopkins_instruct_slide_R1.csv,Horizon Task,3.2.5,MacIntel,60,0,horizon,Johns_Hopkins_R1.json,left,4985,1.13570000000027,,,,,,13,h6,7,LH,61,68,,X,0,92,92,92,1,60,64
,,,,,,,12,baseline,Johns_Hopkins_R1.json,2022-07-20_15h54.11.100,johns_hopkins,/js/tasks/horizon/game_type_v3.xls,/js/tasks/horizon/media/johns_hopkins_instruct_slide_R1.csv,Horizon Task,3.2.5,MacIntel,60,0,horizon,Johns_Hopkins_R1.json,left,5043,0.1960999999996602,,,,,,13,h6,8,LH,58,56,,X,0,93,93,93,1,60,64
,,,,,,,12,baseline,Johns_Hopkins_R1.json,2022-07-20_15h54.11.100,johns_hopkins,/js/tasks/horizon/game_type_v3.xls,/js/tasks/horizon/media/johns_hopkins_instruct_slide_R1.csv,Horizon Task,3.2.5,MacIntel,60,0,horizon,Johns_Hopkins_R1.json,left,5105,0.1443999999994503,,,,,,13,h6,9,LH,62,79,,X,0,94,94,94,1,60,64
,,,,,,,12,baseline,Johns_Hopkins_R1.json,2022-07-20_15h54.11.100,johns_hopkins,/js/tasks/horizon/game_type_v3.xls,/js/tasks/horizon/media/johns_hopkins_instruct_slide_R1.csv,Horizon Task,3.2.5,MacIntel,60,0,horizon,Johns_Hopkins_R1.json,right,5144,2.4522000000001754,,,,,,14,h6,0,LH,44,39,,R,0,95,95,95,1,40,48
,,,,,,,12,baseline,Johns_Hopkins_R1.json,2022-07-20_15h54.11.100,johns_hopkins,/js/tasks/horizon/game_type_v3.xls,/js/tasks/horizon/media/johns_hopkins_instruct_slide_R1.csv,Horizon Task,3.2.5,MacIntel,60,0,horizon,Johns_Hopkins_R1.json,right,5199,1.725500000000011,,,,,,14,h6,1,LH,50,55,,R,0,96,96,96,1,40,48
,,,,,,,12,baseline,Johns_Hopkins_R1.json,2022-07-20_15h54.11.100,johns_hopkins,/js/tasks/horizon/game_type_v3.xls,/js/tasks/horizon/media/johns_hopkins_instruct_slide_R1.csv,Horizon Task,3.2.5,MacIntel,60,0,horizon,Johns_Hopkins_R1.json,left,5252,1.2671999999993204,,,,,,14,h6,2,LH,53,56,,L,0,97,97,97,1,40,48
,,,,,,,12,baseline,Johns_Hopkins_R1.json,2022-07-20_15h54.11.100,johns_hopkins,/js/tasks/horizon/game_type_v3.xls,/js/tasks/horizon/media/johns_hopkins_instruct_slide_R1.csv,Horizon Task,3.2.5,MacIntel,60,0,horizon,Johns_Hopkins_R1.json,right,5310,0.8527999999998883,,,,,,14,h6,3,LH,49,58,,R,0,98,98,98,1,40,48
,,,,,,,12,baseline,Johns_Hopkins_R1.json,2022-07-20_15h54.11.100,johns_hopkins,/js/tasks/horizon/game_type_v3.xls,/js/tasks/horizon/media/johns_hopkins_instruct_slide_R1.csv,Horizon Task,3.2.5,MacIntel,60,0,horizon,Johns_Hopkins_R1.json,left,5350,1.7509999999999764,,,,,,14,h6,4,LH,40,44,,X,0,99,99,99,1,40,48
,,,,,,,12,baseline,Johns_Hopkins_R1.json,2022-07-20_15h54.11.100,johns_hopkins,/js/tasks/horizon/game_type_v3.xls,/js/tasks/horizon/media/johns_hopkins_instruct_slide_R1.csv,Horizon Task,3.2.5,MacIntel,60,0,horizon,Johns_Hopkins_R1.json,right,5407,1.009400000000369,,,,,,14,h6,5,LH,43,57,,X,0,100,100,100,1,40,48
,,,,,,,12,baseline,Johns_Hopkins_R1.json,2022-07-20_15h54.11.100,johns_hopkins,/js/tasks/horizon/game_type_v3.xls,/js/tasks/horizon/media/johns_hopkins_instruct_slide_R1.csv,Horizon Task,3.2.5,MacIntel,60,0,horizon,Johns_Hopkins_R1.json,left,5446,2.352099999999723,,,,,,14,h6,6,LH,39,43,,X,0,101,101,101,1,40,48
,,,,,,,12,baseline,Johns_Hopkins_R1.json,2022-07-20_15h54.11.100,johns_hopkins,/js/tasks/horizon/game_type_v3.xls,/js/tasks/horizon/media/johns_hopkins_instruct_slide_R1.csv,Horizon Task,3.2.5,MacIntel,60,0,horizon,Johns_Hopkins_R1.json,right,5502,2.903500000000008,,,,,,14,h6,7,LH,43,56,,X,0,102,102,102,1,40,48
,,,,,,,12,baseline,Johns_Hopkins_R1.json,2022-07-20_15h54.11.100,johns_hopkins,/js/tasks/horizon/game_type_v3.xls,/js/tasks/horizon/media/johns_hopkins_instruct_slide_R1.csv,Horizon Task,3.2.5,MacIntel,60,0,horizon,Johns_Hopkins_R1.json,right,5558,0.9559000000003834,,,,,,14,h6,8,LH,23,56,,X,0,103,103,103,1,40,48
,,,,,,,12,baseline,Johns_Hopkins_R1.json,2022-07-20_15h54.11.100,johns_hopkins,/js/tasks/horizon/game_type_v3.xls,/js/tasks/horizon/media/johns_hopkins_instruct_slide_R1.csv,Horizon Task,3.2.5,MacIntel,60,0,horizon,Johns_Hopkins_R1.json,right,5607,0.1780999999996311,,,,,,14,h6,9,LH,42,49,,X,0,104,104,104,1,40,48
,,,,,,,12,baseline,Johns_Hopkins_R1.json,2022-07-20_15h54.11.100,johns_hopkins,/js/tasks/horizon/game_type_v3.xls,/js/tasks/horizon/media/johns_hopkins_instruct_slide_R1.csv,Horizon Task,3.2.5,MacIntel,60,0,horizon,Johns_Hopkins_R1.json,left,5672,0.8572999999997819,,,,,,15,h1,0,HL,65,59,,L,0,105,105,105,1,68,60
,,,,,,,12,baseline,Johns_Hopkins_R1.json,2022-07-20_15h54.11.100,johns_hopkins,/js/tasks/horizon/game_type_v3.xls,/js/tasks/horizon/media/johns_hopkins_instruct_slide_R1.csv,Horizon Task,3.2.5,MacIntel,60,0,horizon,Johns_Hopkins_R1.json,right,5733,1.337599999999611,,,,,,15,h1,1,HL,57,61,,R,0,106,106,106,1,68,60
,,,,,,,12,baseline,Johns_Hopkins_R1.json,2022-07-20_15h54.11.100,johns_hopkins,/js/tasks/horizon/game_type_v3.xls,/js/tasks/horizon/media/johns_hopkins_instruct_slide_R1.csv,Horizon Task,3.2.5,MacIntel,60,0,horizon,Johns_Hopkins_R1.json,left,5787,1.2694999999999936,,,,,,15,h1,2,HL,54,48,,L,0,107,107,107,1,68,60
,,,,,,,12,baseline,Johns_Hopkins_R1.json,2022-07-20_15h54.11.100,johns_hopkins,/js/tasks/horizon/game_type_v3.xls,/js/tasks/horizon/media/johns_hopkins_instruct_slide_R1.csv,Horizon Task,3.2.5,MacIntel,60,0,horizon,Johns_Hopkins_R1.json,left,5857,1.0903999999994767,,,,,,15,h1,3,HL,70,58,,L,0,108,108,108,1,68,60
,,,,,,,12,baseline,Johns_Hopkins_R1.json,2022-07-20_15h54.11.100,johns_hopkins,/js/tasks/horizon/game_type_v3.xls,/js/tasks/horizon/media/johns_hopkins_instruct_slide_R1.csv,Horizon Task,3.2.5,MacIntel,60,0,horizon,Johns_Hopkins_R1.json,right,5908,3.701299999999833,,,,,,15,h1,4,HL,69,51,,X,0,109,109,109,1,68,60
,,,,,,,12,baseline,Johns_Hopkins_R1.json,2022-07-20_15h54.11.100,johns_hopkins,/js/tasks/horizon/game_type_v3.xls,/js/tasks/horizon/media/johns_hopkins_instruct_slide_R1.csv,Horizon Task,3.2.5,MacIntel,60,0,horizon,Johns_Hopkins_R1.json,left,5980,0.6880000000001019,,,,,,16,h6,0,LH,72,71,,L,0,110,110,110,1,60,64
,,,,,,,12,baseline,Johns_Hopkins_R1.json,2022-07-20_15h54.11.100,johns_hopkins,/js/tasks/horizon/game_type_v3.xls,/js/tasks/horizon/media/johns_hopkins_instruct_slide_R1.csv,Horizon Task,3.2.5,MacIntel,60,0,horizon,Johns_Hopkins_R1.json,left,6045,1.8547000000002072,,,,,,16,h6,1,LH,65,87,,L,0,111,111,111,1,60,64
,,,,,,,12,baseline,Johns_Hopkins_R1.json,2022-07-20_15h54.11.100,johns_hopkins,/js/tasks/horizon/game_type_v3.xls,/js/tasks/horizon/media/johns_hopkins_instruct_slide_R1.csv,Horizon Task,3.2.5,MacIntel,60,0,horizon,Johns_Hopkins_R1.json,right,6115,1.197499999999991,,,,,,16,h6,2,LH,61,70,,R,0,112,112,112,1,60,64
,,,,,,,12,baseline,Johns_Hopkins_R1.json,2022-07-20_15h54.11.100,johns_hopkins,/js/tasks/horizon/game_type_v3.xls,/js/tasks/horizon/media/johns_hopkins_instruct_slide_R1.csv,Horizon Task,3.2.5,MacIntel,60,0,horizon,Johns_Hopkins_R1.json,right,6191,1.12829999999974,,,,,,16,h6,3,LH,61,76,,R,0,113,113,113,1,60,64
,,,,,,,12,baseline,Johns_Hopkins_R1.json,2022-07-20_15h54.11.100,johns_hopkins,/js/tasks/horizon/game_type_v3.xls,/js/tasks/horizon/media/johns_hopkins_instruct_slide_R1.csv,Horizon Task,3.2.5,MacIntel,60,0,horizon,Johns_Hopkins_R1.json,right,6257,7.157000000000039,,,,,,16,h6,4,LH,71,66,,X,0,114,114,114,1,60,64
,,,,,,,12,baseline,Johns_Hopkins_R1.json,2022-07-20_15h54.11.100,johns_hopkins,/js/tasks/horizon/game_type_v3.xls,/js/tasks/horizon/media/johns_hopkins_instruct_slide_R1.csv,Horizon Task,3.2.5,MacIntel,60,0,horizon,Johns_Hopkins_R1.json,left,6306,1.6988000000006878,,,,,,16,h6,5,LH,49,59,,X,0,115,115,115,1,60,64
,,,,,,,12,baseline,Johns_Hopkins_R1.json,2022-07-20_15h54.11.100,johns_hopkins,/js/tasks/horizon/game_type_v3.xls,/js/tasks/horizon/media/johns_hopkins_instruct_slide_R1.csv,Horizon Task,3.2.5,MacIntel,60,0,horizon,Johns_Hopkins_R1.json,right,6356,1.1674000000003844,,,,,,16,h6,6,LH,65,50,,X,0,116,116,116,1,60,64
,,,,,,,12,baseline,Johns_Hopkins_R1.json,2022-07-20_15h54.11.100,johns_hopkins,/js/tasks/horizon/game_type_v3.xls,/js/tasks/horizon/media/johns_hopkins_instruct_slide_R1.csv,Horizon Task,3.2.5,MacIntel,60,0,horizon,Johns_Hopkins_R1.json,left,6412,2.596200000000181,,,,,,16,h6,7,LH,56,76,,X,0,117,117,117,1,60,64
,,,,,,,12,baseline,Johns_Hopkins_R1.json,2022-07-20_15h54.11.100,johns_hopkins,/js/tasks/horizon/game_type_v3.xls,/js/tasks/horizon/media/johns_hopkins_instruct_slide_R1.csv,Horizon Task,3.2.5,MacIntel,60,0,horizon,Johns_Hopkins_R1.json,right,6471,1.0699999999999363,,,,,,16,h6,8,LH,58,59,,X,0,118,118,118,1,60,64
,,,,,,,12,baseline,Johns_Hopkins_R1.json,2022-07-20_15h54.11.100,johns_hopkins,/js/tasks/horizon/game_type_v3.xls,/js/tasks/horizon/media/johns_hopkins_instruct_slide_R1.csv,Horizon Task,3.2.5,MacIntel,60,0,horizon,Johns_Hopkins_R1.json,right,6535,0.3671000000006188,,,,,,16,h6,9,LH,71,64,,X,0,119,119,119,1,60,64
,,,,,,,12,baseline,Johns_Hopkins_R1.json,2022-07-20_15h54.11.100,johns_hopkins,/js/tasks/horizon/game_type_v3.xls,/js/tasks/horizon/media/johns_hopkins_instruct_slide_R1.csv,Horizon Task,3.2.5,MacIntel,60,0,horizon,Johns_Hopkins_R1.json,left,6578,0.8132999999997992,,,,,,17,h6,0,LH,43,58,,L,0,120,120,120,1,40,52
,,,,,,,12,baseline,Johns_Hopkins_R1.json,2022-07-20_15h54.11.100,johns_hopkins,/js/tasks/horizon/game_type_v3.xls,/js/tasks/horizon/media/johns_hopkins_instruct_slide_R1.csv,Horizon Task,3.2.5,MacIntel,60,0,horizon,Johns_Hopkins_R1.json,right,6617,1.8853999999994357,,,,,,17,h6,1,LH,32,39,,R,0,121,121,121,1,40,52
,,,,,,,12,baseline,Johns_Hopkins_R1.json,2022-07-20_15h54.11.100,johns_hopkins,/js/tasks/horizon/game_type_v3.xls,/js/tasks/horizon/media/johns_hopkins_instruct_slide_R1.csv,Horizon Task,3.2.5,MacIntel,60,0,horizon,Johns_Hopkins_R1.json,left,6662,0.9500000000000455,,,,,,17,h6,2,LH,45,53,,L,0,122,122,122,1,40,52
,,,,,,,12,baseline,Johns_Hopkins_R1.json,2022-07-20_15h54.11.100,johns_hopkins,/js/tasks/horizon/game_type_v3.xls,/js/tasks/horizon/media/johns_hopkins_instruct_slide_R1.csv,Horizon Task,3.2.5,MacIntel,60,0,horizon,Johns_Hopkins_R1.json,right,6722,0.8025000000000091,,,,,,17,h6,3,LH,62,60,,R,0,123,123,123,1,40,52
,,,,,,,12,baseline,Johns_Hopkins_R1.json,2022-07-20_15h54.11.100,johns_hopkins,/js/tasks/horizon/game_type_v3.xls,/js/tasks/horizon/media/johns_hopkins_instruct_slide_R1.csv,Horizon Task,3.2.5,MacIntel,60,0,horizon,Johns_Hopkins_R1.json,left,6754,3.2544000000003734,,,,,,17,h6,4,LH,32,54,,X,0,124,124,124,1,40,52
,,,,,,,12,baseline,Johns_Hopkins_R1.json,2022-07-20_15h54.11.100,johns_hopkins,/js/tasks/horizon/game_type_v3.xls,/js/tasks/horizon/media/johns_hopkins_instruct_slide_R1.csv,Horizon Task,3.2.5,MacIntel,60,0,horizon,Johns_Hopkins_R1.json,right,6805,0.9846000000005688,,,,,,17,h6,5,LH,52,51,,X,0,125,125,125,1,40,52
,,,,,,,12,baseline,Johns_Hopkins_R1.json,2022-07-20_15h54.11.100,johns_hopkins,/js/tasks/horizon/game_type_v3.xls,/js/tasks/horizon/media/johns_hopkins_instruct_slide_R1.csv,Horizon Task,3.2.5,MacIntel,60,0,horizon,Johns_Hopkins_R1.json,right,6859,1.9826999999993404,,,,,,17,h6,6,LH,46,54,,X,0,126,126,126,1,40,52
,,,,,,,12,baseline,Johns_Hopkins_R1.json,2022-07-20_15h54.11.100,johns_hopkins,/js/tasks/horizon/game_type_v3.xls,/js/tasks/horizon/media/johns_hopkins_instruct_slide_R1.csv,Horizon Task,3.2.5,MacIntel,60,0,horizon,Johns_Hopkins_R1.json,right,6917,0.2814000000004171,,,,,,17,h6,7,LH,55,58,,X,0,127,127,127,1,40,52
,,,,,,,12,baseline,Johns_Hopkins_R1.json,2022-07-20_15h54.11.100,johns_hopkins,/js/tasks/horizon/game_type_v3.xls,/js/tasks/horizon/media/johns_hopkins_instruct_slide_R1.csv,Horizon Task,3.2.5,MacIntel,60,0,horizon,Johns_Hopkins_R1.json,right,6978,0.1330000000000382,,,,,,17,h6,8,LH,47,61,,X,0,128,128,128,1,40,52
,,,,,,,12,baseline,Johns_Hopkins_R1.json,2022-07-20_15h54.11.100,johns_hopkins,/js/tasks/horizon/game_type_v3.xls,/js/tasks/horizon/media/johns_hopkins_instruct_slide_R1.csv,Horizon Task,3.2.5,MacIntel,60,0,horizon,Johns_Hopkins_R1.json,right,7023,0.13279999999986103,,,,,,17,h6,9,LH,48,45,,X,0,129,129,129,1,40,52
,,,,,,,12,baseline,Johns_Hopkins_R1.json,2022-07-20_15h54.11.100,johns_hopkins,/js/tasks/horizon/game_type_v3.xls,/js/tasks/horizon/media/johns_hopkins_instruct_slide_R1.csv,Horizon Task,3.2.5,MacIntel,60,0,horizon,Johns_Hopkins_R1.json,left,7051,2.3722000000001344,,,,,,18,h6,0,HL,28,15,,L,0,130,130,130,1,40,20
,,,,,,,12,baseline,Johns_Hopkins_R1.json,2022-07-20_15h54.11.100,johns_hopkins,/js/tasks/horizon/game_type_v3.xls,/js/tasks/horizon/media/johns_hopkins_instruct_slide_R1.csv,Horizon Task,3.2.5,MacIntel,60,0,horizon,Johns_Hopkins_R1.json,left,7104,0.4900000000000091,,,,,,18,h6,1,HL,53,16,,L,0,131,131,131,1,40,20
,,,,,,,12,baseline,Johns_Hopkins_R1.json,2022-07-20_15h54.11.100,johns_hopkins,/js/tasks/horizon/game_type_v3.xls,/js/tasks/horizon/media/johns_hopkins_instruct_slide_R1.csv,Horizon Task,3.2.5,MacIntel,60,0,horizon,Johns_Hopkins_R1.json,left,7159,0.7220999999997275,,,,,,18,h6,2,HL,55,28,,L,0,132,132,132,1,40,20
,,,,,,,12,baseline,Johns_Hopkins_R1.json,2022-07-20_15h54.11.100,johns_hopkins,/js/tasks/horizon/game_type_v3.xls,/js/tasks/horizon/media/johns_hopkins_instruct_slide_R1.csv,Horizon Task,3.2.5,MacIntel,60,0,horizon,Johns_Hopkins_R1.json,right,7179,0.5306999999992286,,,,,,18,h6,3,HL,53,20,,R,0,133,133,133,1,40,20
,,,,,,,12,baseline,Johns_Hopkins_R1.json,2022-07-20_15h54.11.100,johns_hopkins,/js/tasks/horizon/game_type_v3.xls,/js/tasks/horizon/media/johns_hopkins_instruct_slide_R1.csv,Horizon Task,3.2.5,MacIntel,60,0,horizon,Johns_Hopkins_R1.json,left,7232,4.854799999999727,,,,,,18,h6,4,HL,53,3,,X,0,134,134,134,1,40,20
,,,,,,,12,baseline,Johns_Hopkins_R1.json,2022-07-20_15h54.11.100,johns_hopkins,/js/tasks/horizon/game_type_v3.xls,/js/tasks/horizon/media/johns_hopkins_instruct_slide_R1.csv,Horizon Task,3.2.5,MacIntel,60,0,horizon,Johns_Hopkins_R1.json,right,7247,2.168600000000538,,,,,,18,h6,5,HL,40,15,,X,0,135,135,135,1,40,20
,,,,,,,12,baseline,Johns_Hopkins_R1.json,2022-07-20_15h54.11.100,johns_hopkins,/js/tasks/horizon/game_type_v3.xls,/js/tasks/horizon/media/johns_hopkins_instruct_slide_R1.csv,Horizon Task,3.2.5,MacIntel,60,0,horizon,Johns_Hopkins_R1.json,left,7292,0.35810000000060427,,,,,,18,h6,6,HL,45,4,,X,0,136,136,136,1,40,20
,,,,,,,12,baseline,Johns_Hopkins_R1.json,2022-07-20_15h54.11.100,johns_hopkins,/js/tasks/horizon/game_type_v3.xls,/js/tasks/horizon/media/johns_hopkins_instruct_slide_R1.csv,Horizon Task,3.2.5,MacIntel,60,0,horizon,Johns_Hopkins_R1.json,left,7333,0.04759999999964748,,,,,,18,h6,7,HL,41,28,,X,0,137,137,137,1,40,20
,,,,,,,12,baseline,Johns_Hopkins_R1.json,2022-07-20_15h54.11.100,johns_hopkins,/js/tasks/horizon/game_type_v3.xls,/js/tasks/horizon/media/johns_hopkins_instruct_slide_R1.csv,Horizon Task,3.2.5,MacIntel,60,0,horizon,Johns_Hopkins_R1.json,left,7376,0.08370000000013533,,,,,,18,h6,8,HL,43,25,,X,0,138,138,138,1,40,20
,,,,,,,12,baseline,Johns_Hopkins_R1.json,2022-07-20_15h54.11.100,johns_hopkins,/js/tasks/horizon/game_type_v3.xls,/js/tasks/horizon/media/johns_hopkins_instruct_slide_R1.csv,Horizon Task,3.2.5,MacIntel,60,0,horizon,Johns_Hopkins_R1.json,left,7423,0.09840000000042437,,,,,,18,h6,9,HL,47,26,,X,0,139,139,139,1,40,20
,,,,,,,12,baseline,Johns_Hopkins_R1.json,2022-07-20_15h54.11.100,johns_hopkins,/js/tasks/horizon/game_type_v3.xls,/js/tasks/horizon/media/johns_hopkins_instruct_slide_R1.csv,Horizon Task,3.2.5,MacIntel,60,0,horizon,Johns_Hopkins_R1.json,left,7489,0.7679999999999154,,,,,,19,h1,0,LH,66,43,,L,0,140,140,140,1,56,60
,,,,,,,12,baseline,Johns_Hopkins_R1.json,2022-07-20_15h54.11.100,johns_hopkins,/js/tasks/horizon/game_type_v3.xls,/js/tasks/horizon/media/johns_hopkins_instruct_slide_R1.csv,Horizon Task,3.2.5,MacIntel,60,0,horizon,Johns_Hopkins_R1.json,right,7556,0.5902999999998428,,,,,,19,h1,1,LH,33,67,,R,0,141,141,141,1,56,60
,,,,,,,12,baseline,Johns_Hopkins_R1.json,2022-07-20_15h54.11.100,johns_hopkins,/js/tasks/horizon/game_type_v3.xls,/js/tasks/horizon/media/johns_hopkins_instruct_slide_R1.csv,Horizon Task,3.2.5,MacIntel,60,0,horizon,Johns_Hopkins_R1.json,left,7598,0.5049000000003616,,,,,,19,h1,2,LH,42,59,,L,0,142,142,142,1,56,60
,,,,,,,12,baseline,Johns_Hopkins_R1.json,2022-07-20_15h54.11.100,johns_hopkins,/js/tasks/horizon/game_type_v3.xls,/js/tasks/horizon/media/johns_hopkins_instruct_slide_R1.csv,Horizon Task,3.2.5,MacIntel,60,0,horizon,Johns_Hopkins_R1.json,right,7662,0.5332999999998265,,,,,,19,h1,3,LH,55,64,,R,0,143,143,143,1,56,60
,,,,,,,12,baseline,Johns_Hopkins_R1.json,2022-07-20_15h54.11.100,johns_hopkins,/js/tasks/horizon/game_type_v3.xls,/js/tasks/horizon/media/johns_hopkins_instruct_slide_R1.csv,Horizon Task,3.2.5,MacIntel,60,0,horizon,Johns_Hopkins_R1.json,right,7720,0.7137999999998783,,,,,,19,h1,4,LH,47,58,,X,0,144,144,144,1,56,60
,,,,,,,12,baseline,Johns_Hopkins_R1.json,2022-07-20_15h54.11.100,johns_hopkins,/js/tasks/horizon/game_type_v3.xls,/js/tasks/horizon/media/johns_hopkins_instruct_slide_R1.csv,Horizon Task,3.2.5,MacIntel,60,0,horizon,Johns_Hopkins_R1.json,left,7745,0.499899999999343,,,,,,20,h1,0,LH,25,23,,L,0,145,145,145,1,32,40
,,,,,,,12,baseline,Johns_Hopkins_R1.json,2022-07-20_15h54.11.100,johns_hopkins,/js/tasks/horizon/game_type_v3.xls,/js/tasks/horizon/media/johns_hopkins_instruct_slide_R1.csv,Horizon Task,3.2.5,MacIntel,60,0,horizon,Johns_Hopkins_R1.json,left,7774,3.0520999999996548,,,,,,20,h1,1,LH,29,57,,L,0,146,146,146,1,32,40
,,,,,,,12,baseline,Johns_Hopkins_R1.json,2022-07-20_15h54.11.100,johns_hopkins,/js/tasks/horizon/game_type_v3.xls,/js/tasks/horizon/media/johns_hopkins_instruct_slide_R1.csv,Horizon Task,3.2.5,MacIntel,60,0,horizon,Johns_Hopkins_R1.json,right,7812,0.3643999999994776,,,,,,20,h1,2,LH,44,38,,R,0,147,147,147,1,32,40
,,,,,,,12,baseline,Johns_Hopkins_R1.json,2022-07-20_15h54.11.100,johns_hopkins,/js/tasks/horizon/game_type_v3.xls,/js/tasks/horizon/media/johns_hopkins_instruct_slide_R1.csv,Horizon Task,3.2.5,MacIntel,60,0,horizon,Johns_Hopkins_R1.json,left,7848,0.4807999999998174,,,,,,20,h1,3,LH,36,31,,L,0,148,148,148,1,32,40
,,,,,,,12,baseline,Johns_Hopkins_R1.json,2022-07-20_15h54.11.100,johns_hopkins,/js/tasks/horizon/game_type_v3.xls,/js/tasks/horizon/media/johns_hopkins_instruct_slide_R1.csv,Horizon Task,3.2.5,MacIntel,60,0,horizon,Johns_Hopkins_R1.json,right,7896,2.21120000000019,,,,,,20,h1,4,LH,39,48,,X,0,149,149,149,1,32,40
,,,,,,,12,baseline,Johns_Hopkins_R1.json,2022-07-20_15h54.11.100,johns_hopkins,/js/tasks/horizon/game_type_v3.xls,/js/tasks/horizon/media/johns_hopkins_instruct_slide_R1.csv,Horizon Task,3.2.5,MacIntel,60,0,horizon,Johns_Hopkins_R1.json,right,7931,0.35060000000055425,,,,,,21,h6,0,HL,43,35,,R,0,150,150,150,1,40,28
,,,,,,,12,baseline,Johns_Hopkins_R1.json,2022-07-20_15h54.11.100,johns_hopkins,/js/tasks/horizon/game_type_v3.xls,/js/tasks/horizon/media/johns_hopkins_instruct_slide_R1.csv,Horizon Task,3.2.5,MacIntel,60,0,horizon,Johns_Hopkins_R1.json,right,7952,0.27469999999925676,,,,,,21,h6,1,HL,31,21,,R,0,151,151,151,1,40,28
,,,,,,,12,baseline,Johns_Hopkins_R1.json,2022-07-20_15h54.11.100,johns_hopkins,/js/tasks/horizon/game_type_v3.xls,/js/tasks/horizon/media/johns_hopkins_instruct_slide_R1.csv,Horizon Task,3.2.5,MacIntel,60,0,horizon,Johns_Hopkins_R1.json,right,7980,0.2884999999999991,,,,,,21,h6,2,HL,40,28,,R,0,152,152,152,1,40,28
,,,,,,,12,baseline,Johns_Hopkins_R1.json,2022-07-20_15h54.11.100,johns_hopkins,/js/tasks/horizon/game_type_v3.xls,/js/tasks/horizon/media/johns_hopkins_instruct_slide_R1.csv,Horizon Task,3.2.5,MacIntel,60,0,horizon,Johns_Hopkins_R1.json,left,8016,0.24649999999996908,,,,,,21,h6,3,HL,36,23,,L,0,153,153,153,1,40,28
,,,,,,,12,baseline,Johns_Hopkins_R1.json,2022-07-20_15h54.11.100,johns_hopkins,/js/tasks/horizon/game_type_v3.xls,/js/tasks/horizon/media/johns_hopkins_instruct_slide_R1.csv,Horizon Task,3.2.5,MacIntel,60,0,horizon,Johns_Hopkins_R1.json,left,8056,2.6346999999992704,,,,,,21,h6,4,HL,40,27,,X,0,154,154,154,1,40,28
,,,,,,,12,baseline,Johns_Hopkins_R1.json,2022-07-20_15h54.11.100,johns_hopkins,/js/tasks/horizon/game_type_v3.xls,/js/tasks/horizon/media/johns_hopkins_instruct_slide_R1.csv,Horizon Task,3.2.5,MacIntel,60,0,horizon,Johns_Hopkins_R1.json,left,8102,2.592999999999961,,,,,,21,h6,5,HL,46,20,,X,0,155,155,155,1,40,28
,,,,,,,12,baseline,Johns_Hopkins_R1.json,2022-07-20_15h54.11.100,johns_hopkins,/js/tasks/horizon/game_type_v3.xls,/js/tasks/horizon/media/johns_hopkins_instruct_slide_R1.csv,Horizon Task,3.2.5,MacIntel,60,0,horizon,Johns_Hopkins_R1.json,left,8152,0.3924000000004071,,,,,,21,h6,6,HL,50,21,,X,0,156,156,156,1,40,28
,,,,,,,12,baseline,Johns_Hopkins_R1.json,2022-07-20_15h54.11.100,johns_hopkins,/js/tasks/horizon/game_type_v3.xls,/js/tasks/horizon/media/johns_hopkins_instruct_slide_R1.csv,Horizon Task,3.2.5,MacIntel,60,0,horizon,Johns_Hopkins_R1.json,left,8193,0.1640999999996211,,,,,,21,h6,7,HL,41,37,,X,0,157,157,157,1,40,28
,,,,,,,12,baseline,Johns_Hopkins_R1.json,2022-07-20_15h54.11.100,johns_hopkins,/js/tasks/horizon/game_type_v3.xls,/js/tasks/horizon/media/johns_hopkins_instruct_slide_R1.csv,Horizon Task,3.2.5,MacIntel,60,0,horizon,Johns_Hopkins_R1.json,left,8237,0.09989999999936572,,,,,,21,h6,8,HL,44,19,,X,0,158,158,158,1,40,28
,,,,,,,12,baseline,Johns_Hopkins_R1.json,2022-07-20_15h54.11.100,johns_hopkins,/js/tasks/horizon/game_type_v3.xls,/js/tasks/horizon/media/johns_hopkins_instruct_slide_R1.csv,Horizon Task,3.2.5,MacIntel,60,0,horizon,Johns_Hopkins_R1.json,left,8274,0.13400000000001455,,,,,,21,h6,9,HL,37,25,,X,0,159,159,159,1,40,28
,,,,,,,12,baseline,Johns_Hopkins_R1.json,2022-07-20_15h54.11.100,johns_hopkins,/js/tasks/horizon/game_type_v3.xls,/js/tasks/horizon/media/johns_hopkins_instruct_slide_R1.csv,Horizon Task,3.2.5,MacIntel,60,0,horizon,Johns_Hopkins_R1.json,left,8306,0.6316999999992277,,,,,,22,h1,0,LH,32,76,,L,0,160,160,160,1,40,60
,,,,,,,12,baseline,Johns_Hopkins_R1.json,2022-07-20_15h54.11.100,johns_hopkins,/js/tasks/horizon/game_type_v3.xls,/js/tasks/horizon/media/johns_hopkins_instruct_slide_R1.csv,Horizon Task,3.2.5,MacIntel,60,0,horizon,Johns_Hopkins_R1.json,right,8371,0.4814000000003489,,,,,,22,h1,1,LH,37,65,,R,0,161,161,161,1,40,60
,,,,,,,12,baseline,Johns_Hopkins_R1.json,2022-07-20_15h54.11.100,johns_hopkins,/js/tasks/horizon/game_type_v3.xls,/js/tasks/horizon/media/johns_hopkins_instruct_slide_R1.csv,Horizon Task,3.2.5,MacIntel,60,0,horizon,Johns_Hopkins_R1.json,left,8417,0.45249999999998636,,,,,,22,h1,2,LH,46,68,,L,0,162,162,162,1,40,60
,,,,,,,12,baseline,Johns_Hopkins_R1.json,2022-07-20_15h54.11.100,johns_hopkins,/js/tasks/horizon/game_type_v3.xls,/js/tasks/horizon/media/johns_hopkins_instruct_slide_R1.csv,Horizon Task,3.2.5,MacIntel,60,0,horizon,Johns_Hopkins_R1.json,right,8486,0.2823000000006459,,,,,,22,h1,3,LH,37,69,,R,0,163,163,163,1,40,60
,,,,,,,12,baseline,Johns_Hopkins_R1.json,2022-07-20_15h54.11.100,johns_hopkins,/js/tasks/horizon/game_type_v3.xls,/js/tasks/horizon/media/johns_hopkins_instruct_slide_R1.csv,Horizon Task,3.2.5,MacIntel,60,0,horizon,Johns_Hopkins_R1.json,right,8539,0.7283999999993966,,,,,,22,h1,4,LH,40,53,,X,0,164,164,164,1,40,60
,,,,,,,12,baseline,Johns_Hopkins_R1.json,2022-07-20_15h54.11.100,johns_hopkins,/js/tasks/horizon/game_type_v3.xls,/js/tasks/horizon/media/johns_hopkins_instruct_slide_R1.csv,Horizon Task,3.2.5,MacIntel,60,0,horizon,Johns_Hopkins_R1.json,left,8588,0.5349000000003343,,,,,,23,h6,0,HL,49,36,,L,0,165,165,165,1,60,40
,,,,,,,12,baseline,Johns_Hopkins_R1.json,2022-07-20_15h54.11.100,johns_hopkins,/js/tasks/horizon/game_type_v3.xls,/js/tasks/horizon/media/johns_hopkins_instruct_slide_R1.csv,Horizon Task,3.2.5,MacIntel,60,0,horizon,Johns_Hopkins_R1.json,right,8631,0.22079999999982647,,,,,,23,h6,1,HL,68,43,,R,0,166,166,166,1,60,40
,,,,,,,12,baseline,Johns_Hopkins_R1.json,2022-07-20_15h54.11.100,johns_hopkins,/js/tasks/horizon/game_type_v3.xls,/js/tasks/horizon/media/johns_hopkins_instruct_slide_R1.csv,Horizon Task,3.2.5,MacIntel,60,0,horizon,Johns_Hopkins_R1.json,left,8686,0.18330000000071323,,,,,,23,h6,2,HL,55,40,,L,0,167,167,167,1,60,40
,,,,,,,12,baseline,Johns_Hopkins_R1.json,2022-07-20_15h54.11.100,johns_hopkins,/js/tasks/horizon/game_type_v3.xls,/js/tasks/horizon/media/johns_hopkins_instruct_slide_R1.csv,Horizon Task,3.2.5,MacIntel,60,0,horizon,Johns_Hopkins_R1.json,right,8727,0.20199999999999818,,,,,,23,h6,3,HL,67,41,,R,0,168,168,168,1,60,40
,,,,,,,12,baseline,Johns_Hopkins_R1.json,2022-07-20_15h54.11.100,johns_hopkins,/js/tasks/horizon/game_type_v3.xls,/js/tasks/horizon/media/johns_hopkins_instruct_slide_R1.csv,Horizon Task,3.2.5,MacIntel,60,0,horizon,Johns_Hopkins_R1.json,left,8776,3.34800000000007,,,,,,23,h6,4,HL,49,34,,X,0,169,169,169,1,60,40
,,,,,,,12,baseline,Johns_Hopkins_R1.json,2022-07-20_15h54.11.100,johns_hopkins,/js/tasks/horizon/game_type_v3.xls,/js/tasks/horizon/media/johns_hopkins_instruct_slide_R1.csv,Horizon Task,3.2.5,MacIntel,60,0,horizon,Johns_Hopkins_R1.json,right,8811,1.3032000000001744,,,,,,23,h6,5,HL,57,35,,X,0,170,170,170,1,60,40
,,,,,,,12,baseline,Johns_Hopkins_R1.json,2022-07-20_15h54.11.100,johns_hopkins,/js/tasks/horizon/game_type_v3.xls,/js/tasks/horizon/media/johns_hopkins_instruct_slide_R1.csv,Horizon Task,3.2.5,MacIntel,60,0,horizon,Johns_Hopkins_R1.json,left,8866,1.7343999999994821,,,,,,23,h6,6,HL,55,50,,X,0,171,171,171,1,60,40
,,,,,,,12,baseline,Johns_Hopkins_R1.json,2022-07-20_15h54.11.100,johns_hopkins,/js/tasks/horizon/game_type_v3.xls,/js/tasks/horizon/media/johns_hopkins_instruct_slide_R1.csv,Horizon Task,3.2.5,MacIntel,60,0,horizon,Johns_Hopkins_R1.json,left,8920,0.4548999999994976,,,,,,23,h6,7,HL,54,28,,X,0,172,172,172,1,60,40
,,,,,,,12,baseline,Johns_Hopkins_R1.json,2022-07-20_15h54.11.100,johns_hopkins,/js/tasks/horizon/game_type_v3.xls,/js/tasks/horizon/media/johns_hopkins_instruct_slide_R1.csv,Horizon Task,3.2.5,MacIntel,60,0,horizon,Johns_Hopkins_R1.json,left,8986,0.14970000000016626,,,,,,23,h6,8,HL,66,35,,X,0,173,173,173,1,60,40
,,,,,,,12,baseline,Johns_Hopkins_R1.json,2022-07-20_15h54.11.100,johns_hopkins,/js/tasks/horizon/game_type_v3.xls,/js/tasks/horizon/media/johns_hopkins_instruct_slide_R1.csv,Horizon Task,3.2.5,MacIntel,60,0,horizon,Johns_Hopkins_R1.json,left,9040,0.11739999999940665,,,,,,23,h6,9,HL,54,40,,X,0,174,174,174,1,60,40
,,,,,,,12,baseline,Johns_Hopkins_R1.json,2022-07-20_15h54.11.100,johns_hopkins,/js/tasks/horizon/game_type_v3.xls,/js/tasks/horizon/media/johns_hopkins_instruct_slide_R1.csv,Horizon Task,3.2.5,MacIntel,60,0,horizon,Johns_Hopkins_R1.json,left,9080,0.2696999999992613,,,,,,24,h6,0,LH,40,38,,L,0,175,175,175,1,40,48
,,,,,,,12,baseline,Johns_Hopkins_R1.json,2022-07-20_15h54.11.100,johns_hopkins,/js/tasks/horizon/game_type_v3.xls,/js/tasks/horizon/media/johns_hopkins_instruct_slide_R1.csv,Horizon Task,3.2.5,MacIntel,60,0,horizon,Johns_Hopkins_R1.json,left,9117,0.23390000000028977,,,,,,24,h6,1,LH,37,44,,L,0,176,176,176,1,40,48
,,,,,,,12,baseline,Johns_Hopkins_R1.json,2022-07-20_15h54.11.100,johns_hopkins,/js/tasks/horizon/game_type_v3.xls,/js/tasks/horizon/media/johns_hopkins_instruct_slide_R1.csv,Horizon Task,3.2.5,MacIntel,60,0,horizon,Johns_Hopkins_R1.json,right,9161,0.17970000000013897,,,,,,24,h6,2,LH,60,44,,R,0,177,177,177,1,40,48
,,,,,,,12,baseline,Johns_Hopkins_R1.json,2022-07-20_15h54.11.100,johns_hopkins,/js/tasks/horizon/game_type_v3.xls,/js/tasks/horizon/media/johns_hopkins_instruct_slide_R1.csv,Horizon Task,3.2.5,MacIntel,60,0,horizon,Johns_Hopkins_R1.json,right,9213,0.2545999999996411,,,,,,24,h6,3,LH,42,52,,R,0,178,178,178,1,40,48
,,,,,,,12,baseline,Johns_Hopkins_R1.json,2022-07-20_15h54.11.100,johns_hopkins,/js/tasks/horizon/game_type_v3.xls,/js/tasks/horizon/media/johns_hopkins_instruct_slide_R1.csv,Horizon Task,3.2.5,MacIntel,60,0,horizon,Johns_Hopkins_R1.json,right,9268,1.4665999999996302,,,,,,24,h6,4,LH,52,55,,X,0,179,179,179,1,40,48
,,,,,,,12,baseline,Johns_Hopkins_R1.json,2022-07-20_15h54.11.100,johns_hopkins,/js/tasks/horizon/game_type_v3.xls,/js/tasks/horizon/media/johns_hopkins_instruct_slide_R1.csv,Horizon Task,3.2.5,MacIntel,60,0,horizon,Johns_Hopkins_R1.json,right,9319,1.2839999999999918,,,,,,24,h6,5,LH,46,51,,X,0,180,180,180,1,40,48
,,,,,,,12,baseline,Johns_Hopkins_R1.json,2022-07-20_15h54.11.100,johns_hopkins,/js/tasks/horizon/game_type_v3.xls,/js/tasks/horizon/media/johns_hopkins_instruct_slide_R1.csv,Horizon Task,3.2.5,MacIntel,60,0,horizon,Johns_Hopkins_R1.json,right,9370,0.3044999999999618,,,,,,24,h6,6,LH,50,51,,X,0,181,181,181,1,40,48
,,,,,,,12,baseline,Johns_Hopkins_R1.json,2022-07-20_15h54.11.100,johns_hopkins,/js/tasks/horizon/game_type_v3.xls,/js/tasks/horizon/media/johns_hopkins_instruct_slide_R1.csv,Horizon Task,3.2.5,MacIntel,60,0,horizon,Johns_Hopkins_R1.json,right,9404,0.5304999999999609,,,,,,24,h6,7,LH,47,34,,X,0,182,182,182,1,40,48
,,,,,,,12,baseline,Johns_Hopkins_R1.json,2022-07-20_15h54.11.100,johns_hopkins,/js/tasks/horizon/game_type_v3.xls,/js/tasks/horizon/media/johns_hopkins_instruct_slide_R1.csv,Horizon Task,3.2.5,MacIntel,60,0,horizon,Johns_Hopkins_R1.json,right,9453,3.3234999999999673,,,,,,24,h6,8,LH,30,49,,X,0,183,183,183,1,40,48
,,,,,,,12,baseline,Johns_Hopkins_R1.json,2022-07-20_15h54.11.100,johns_hopkins,/js/tasks/horizon/game_type_v3.xls,/js/tasks/horizon/media/johns_hopkins_instruct_slide_R1.csv,Horizon Task,3.2.5,MacIntel,60,0,horizon,Johns_Hopkins_R1.json,right,9506,0.21479999999985466,,,,,,24,h6,9,LH,29,53,,X,0,184,184,184,1,40,48
,,,,,,,12,baseline,Johns_Hopkins_R1.json,2022-07-20_15h54.11.100,johns_hopkins,/js/tasks/horizon/game_type_v3.xls,/js/tasks/horizon/media/johns_hopkins_instruct_slide_R1.csv,Horizon Task,3.2.5,MacIntel,60,0,horizon,Johns_Hopkins_R1.json,left,9531,0.43650000000002365,,,,,,25,h6,0,LH,25,48,,L,0,185,185,185,1,20,40
,,,,,,,12,baseline,Johns_Hopkins_R1.json,2022-07-20_15h54.11.100,johns_hopkins,/js/tasks/horizon/game_type_v3.xls,/js/tasks/horizon/media/johns_hopkins_instruct_slide_R1.csv,Horizon Task,3.2.5,MacIntel,60,0,horizon,Johns_Hopkins_R1.json,right,9579,0.6503999999994221,,,,,,25,h6,1,LH,20,48,,R,0,186,186,186,1,20,40
,,,,,,,12,baseline,Johns_Hopkins_R1.json,2022-07-20_15h54.11.100,johns_hopkins,/js/tasks/horizon/game_type_v3.xls,/js/tasks/horizon/media/johns_hopkins_instruct_slide_R1.csv,Horizon Task,3.2.5,MacIntel,60,0,horizon,Johns_Hopkins_R1.json,right,9607,0.49870000000009895,,,,,,25,h6,2,LH,8,28,,R,0,187,187,187,1,20,40
,,,,,,,12,baseline,Johns_Hopkins_R1.json,2022-07-20_15h54.11.100,johns_hopkins,/js/tasks/horizon/game_type_v3.xls,/js/tasks/horizon/media/johns_hopkins_instruct_slide_R1.csv,Horizon Task,3.2.5,MacIntel,60,0,horizon,Johns_Hopkins_R1.json,left,9629,0.8692999999998392,,,,,,25,h6,3,LH,22,33,,L,0,188,188,188,1,20,40
,,,,,,,12,baseline,Johns_Hopkins_R1.json,2022-07-20_15h54.11.100,johns_hopkins,/js/tasks/horizon/game_type_v3.xls,/js/tasks/horizon/media/johns_hopkins_instruct_slide_R1.csv,Horizon Task,3.2.5,MacIntel,60,0,horizon,Johns_Hopkins_R1.json,right,9657,3.9003000000006978,,,,,,25,h6,4,LH,29,28,,X,0,189,189,189,1,20,40
,,,,,,,12,baseline,Johns_Hopkins_R1.json,2022-07-20_15h54.11.100,johns_hopkins,/js/tasks/horizon/game_type_v3.xls,/js/tasks/horizon/media/johns_hopkins_instruct_slide_R1.csv,Horizon Task,3.2.5,MacIntel,60,0,horizon,Johns_Hopkins_R1.json,left,9673,0.9494000000004235,,,,,,25,h6,5,LH,16,39,,X,0,190,190,190,1,20,40
,,,,,,,12,baseline,Johns_Hopkins_R1.json,2022-07-20_15h54.11.100,johns_hopkins,/js/tasks/horizon/game_type_v3.xls,/js/tasks/horizon/media/johns_hopkins_instruct_slide_R1.csv,Horizon Task,3.2.5,MacIntel,60,0,horizon,Johns_Hopkins_R1.json,right,9724,2.201299999999833,,,,,,25,h6,6,LH,41,51,,X,0,191,191,191,1,20,40
,,,,,,,12,baseline,Johns_Hopkins_R1.json,2022-07-20_15h54.11.100,johns_hopkins,/js/tasks/horizon/game_type_v3.xls,/js/tasks/horizon/media/johns_hopkins_instruct_slide_R1.csv,Horizon Task,3.2.5,MacIntel,60,0,horizon,Johns_Hopkins_R1.json,right,9759,0.3839000000003807,,,,,,25,h6,7,LH,22,35,,X,0,192,192,192,1,20,40
,,,,,,,12,baseline,Johns_Hopkins_R1.json,2022-07-20_15h54.11.100,johns_hopkins,/js/tasks/horizon/game_type_v3.xls,/js/tasks/horizon/media/johns_hopkins_instruct_slide_R1.csv,Horizon Task,3.2.5,MacIntel,60,0,horizon,Johns_Hopkins_R1.json,right,9809,0.031000000000062755,,,,,,25,h6,8,LH,30,50,,X,0,193,193,193,1,20,40
,,,,,,,12,baseline,Johns_Hopkins_R1.json,2022-07-20_15h54.11.100,johns_hopkins,/js/tasks/horizon/game_type_v3.xls,/js/tasks/horizon/media/johns_hopkins_instruct_slide_R1.csv,Horizon Task,3.2.5,MacIntel,60,0,horizon,Johns_Hopkins_R1.json,right,9843,0.06610000000057425,,,,,,25,h6,9,LH,14,34,,X,0,194,194,194,1,20,40
,,,,,,,12,baseline,Johns_Hopkins_R1.json,2022-07-20_15h54.11.100,johns_hopkins,/js/tasks/horizon/game_type_v3.xls,/js/tasks/horizon/media/johns_hopkins_instruct_slide_R1.csv,Horizon Task,3.2.5,MacIntel,60,0,horizon,Johns_Hopkins_R1.json,right,9903,0.38370000000020354,,,,,,26,h6,0,LH,69,60,,R,0,195,195,195,1,56,60
,,,,,,,12,baseline,Johns_Hopkins_R1.json,2022-07-20_15h54.11.100,johns_hopkins,/js/tasks/horizon/game_type_v3.xls,/js/tasks/horizon/media/johns_hopkins_instruct_slide_R1.csv,Horizon Task,3.2.5,MacIntel,60,0,horizon,Johns_Hopkins_R1.json,left,9958,0.319700000000239,,,,,,26,h6,1,LH,55,53,,L,0,196,196,196,1,56,60
,,,,,,,12,baseline,Johns_Hopkins_R1.json,2022-07-20_15h54.11.100,johns_hopkins,/js/tasks/horizon/game_type_v3.xls,/js/tasks/horizon/media/johns_hopkins_instruct_slide_R1.csv,Horizon Task,3.2.5,MacIntel,60,0,horizon,Johns_Hopkins_R1.json,left,10015,0.2687999999998283,,,,,,26,h6,2,LH,57,59,,L,0,197,197,197,1,56,60
,,,,,,,12,baseline,Johns_Hopkins_R1.json,2022-07-20_15h54.11.100,johns_hopkins,/js/tasks/horizon/game_type_v3.xls,/js/tasks/horizon/media/johns_hopkins_instruct_slide_R1.csv,Horizon Task,3.2.5,MacIntel,60,0,horizon,Johns_Hopkins_R1.json,left,10077,0.4176000000005615,,,,,,26,h6,3,LH,62,46,,L,0,198,198,198,1,56,60
,,,,,,,12,baseline,Johns_Hopkins_R1.json,2022-07-20_15h54.11.100,johns_hopkins,/js/tasks/horizon/game_type_v3.xls,/js/tasks/horizon/media/johns_hopkins_instruct_slide_R1.csv,Horizon Task,3.2.5,MacIntel,60,0,horizon,Johns_Hopkins_R1.json,right,10140,2.924400000000446,,,,,,26,h6,4,LH,50,63,,X,0,199,199,199,1,56,60
,,,,,,,12,baseline,Johns_Hopkins_R1.json,2022-07-20_15h54.11.100,johns_hopkins,/js/tasks/horizon/game_type_v3.xls,/js/tasks/horizon/media/johns_hopkins_instruct_slide_R1.csv,Horizon Task,3.2.5,MacIntel,60,0,horizon,Johns_Hopkins_R1.json,left,10205,1.0728999999994357,,,,,,26,h6,5,LH,65,68,,X,0,200,200,200,1,56,60
,,,,,,,12,baseline,Johns_Hopkins_R1.json,2022-07-20_15h54.11.100,johns_hopkins,/js/tasks/horizon/game_type_v3.xls,/js/tasks/horizon/media/johns_hopkins_instruct_slide_R1.csv,Horizon Task,3.2.5,MacIntel,60,0,horizon,Johns_Hopkins_R1.json,right,10269,0.8020000000000209,,,,,,26,h6,6,LH,59,64,,X,0,201,201,201,1,56,60
,,,,,,,12,baseline,Johns_Hopkins_R1.json,2022-07-20_15h54.11.100,johns_hopkins,/js/tasks/horizon/game_type_v3.xls,/js/tasks/horizon/media/johns_hopkins_instruct_slide_R1.csv,Horizon Task,3.2.5,MacIntel,60,0,horizon,Johns_Hopkins_R1.json,left,10315,1.1677000000001954,,,,,,26,h6,7,LH,46,52,,X,0,202,202,202,1,56,60
,,,,,,,12,baseline,Johns_Hopkins_R1.json,2022-07-20_15h54.11.100,johns_hopkins,/js/tasks/horizon/game_type_v3.xls,/js/tasks/horizon/media/johns_hopkins_instruct_slide_R1.csv,Horizon Task,3.2.5,MacIntel,60,0,horizon,Johns_Hopkins_R1.json,right,10373,0.4160999999996875,,,,,,26,h6,8,LH,68,58,,X,0,203,203,203,1,56,60
,,,,,,,12,baseline,Johns_Hopkins_R1.json,2022-07-20_15h54.11.100,johns_hopkins,/js/tasks/horizon/game_type_v3.xls,/js/tasks/horizon/media/johns_hopkins_instruct_slide_R1.csv,Horizon Task,3.2.5,MacIntel,60,0,horizon,Johns_Hopkins_R1.json,right,10435,0.4035000000000082,,,,,,26,h6,9,LH,62,62,,X,0,204,204,204,1,56,60
,,,,,,,12,baseline,Johns_Hopkins_R1.json,2022-07-20_15h54.11.100,johns_hopkins,/js/tasks/horizon/game_type_v3.xls,/js/tasks/horizon/media/johns_hopkins_instruct_slide_R1.csv,Horizon Task,3.2.5,MacIntel,60,0,horizon,Johns_Hopkins_R1.json,left,10492,0.46879999999987376,,,,,,27,h1,0,HL,57,35,,L,0,205,205,205,1,60,40
,,,,,,,12,baseline,Johns_Hopkins_R1.json,2022-07-20_15h54.11.100,johns_hopkins,/js/tasks/horizon/game_type_v3.xls,/js/tasks/horizon/media/johns_hopkins_instruct_slide_R1.csv,Horizon Task,3.2.5,MacIntel,60,0,horizon,Johns_Hopkins_R1.json,right,10542,0.1809000000002925,,,,,,27,h1,1,HL,63,50,,R,0,206,206,206,1,60,40
,,,,,,,12,baseline,Johns_Hopkins_R1.json,2022-07-20_15h54.11.100,johns_hopkins,/js/tasks/horizon/game_type_v3.xls,/js/tasks/horizon/media/johns_hopkins_instruct_slide_R1.csv,Horizon Task,3.2.5,MacIntel,60,0,horizon,Johns_Hopkins_R1.json,left,10599,0.187200000000189,,,,,,27,h1,2,HL,57,53,,L,0,207,207,207,1,60,40
,,,,,,,12,baseline,Johns_Hopkins_R1.json,2022-07-20_15h54.11.100,johns_hopkins,/js/tasks/horizon/game_type_v3.xls,/js/tasks/horizon/media/johns_hopkins_instruct_slide_R1.csv,Horizon Task,3.2.5,MacIntel,60,0,horizon,Johns_Hopkins_R1.json,right,10647,0.21679999999980737,,,,,,27,h1,3,HL,54,48,,R,0,208,208,208,1,60,40
,,,,,,,12,baseline,Johns_Hopkins_R1.json,2022-07-20_15h54.11.100,johns_hopkins,/js/tasks/horizon/game_type_v3.xls,/js/tasks/horizon/media/johns_hopkins_instruct_slide_R1.csv,Horizon Task,3.2.5,MacIntel,60,0,horizon,Johns_Hopkins_R1.json,left,10709,1.701799999999821,,,,,,27,h1,4,HL,62,36,,X,0,209,209,209,1,60,40
,,,,,,,12,baseline,Johns_Hopkins_R1.json,2022-07-20_15h54.11.100,johns_hopkins,/js/tasks/horizon/game_type_v3.xls,/js/tasks/horizon/media/johns_hopkins_instruct_slide_R1.csv,Horizon Task,3.2.5,MacIntel,60,0,horizon,Johns_Hopkins_R1.json,right,10735,0.4115000000000464,,,,,,28,h6,0,HL,43,26,,R,0,210,210,210,1,40,28
,,,,,,,12,baseline,Johns_Hopkins_R1.json,2022-07-20_15h54.11.100,johns_hopkins,/js/tasks/horizon/game_type_v3.xls,/js/tasks/horizon/media/johns_hopkins_instruct_slide_R1.csv,Horizon Task,3.2.5,MacIntel,60,0,horizon,Johns_Hopkins_R1.json,right,10756,0.48440000000039163,,,,,,28,h6,1,HL,31,21,,R,0,211,211,211,1,40,28
,,,,,,,12,baseline,Johns_Hopkins_R1.json,2022-07-20_15h54.11.100,johns_hopkins,/js/tasks/horizon/game_type_v3.xls,/js/tasks/horizon/media/johns_hopkins_instruct_slide_R1.csv,Horizon Task,3.2.5,MacIntel,60,0,horizon,Johns_Hopkins_R1.json,right,10781,0.3830000000000382,,,,,,28,h6,2,HL,36,25,,R,0,212,212,212,1,40,28
,,,,,,,12,baseline,Johns_Hopkins_R1.json,2022-07-20_15h54.11.100,johns_hopkins,/js/tasks/horizon/game_type_v3.xls,/js/tasks/horizon/media/johns_hopkins_instruct_slide_R1.csv,Horizon Task,3.2.5,MacIntel,60,0,horizon,Johns_Hopkins_R1.json,left,10821,0.3222000000001799,,,,,,28,h6,3,HL,40,23,,L,0,213,213,213,1,40,28
,,,,,,,12,baseline,Johns_Hopkins_R1.json,2022-07-20_15h54.11.100,johns_hopkins,/js/tasks/horizon/game_type_v3.xls,/js/tasks/horizon/media/johns_hopkins_instruct_slide_R1.csv,Horizon Task,3.2.5,MacIntel,60,0,horizon,Johns_Hopkins_R1.json,left,10861,0.8819999999999482,,,,,,28,h6,4,HL,40,18,,X,0,214,214,214,1,40,28
,,,,,,,12,baseline,Johns_Hopkins_R1.json,2022-07-20_15h54.11.100,johns_hopkins,/js/tasks/horizon/game_type_v3.xls,/js/tasks/horizon/media/johns_hopkins_instruct_slide_R1.csv,Horizon Task,3.2.5,MacIntel,60,0,horizon,Johns_Hopkins_R1.json,left,10903,1.4570999999996275,,,,,,28,h6,5,HL,42,29,,X,0,215,215,215,1,40,28
,,,,,,,12,baseline,Johns_Hopkins_R1.json,2022-07-20_15h54.11.100,johns_hopkins,/js/tasks/horizon/game_type_v3.xls,/js/tasks/horizon/media/johns_hopkins_instruct_slide_R1.csv,Horizon Task,3.2.5,MacIntel,60,0,horizon,Johns_Hopkins_R1.json,left,10941,0.5480999999996357,,,,,,28,h6,6,HL,38,28,,X,0,216,216,216,1,40,28
,,,,,,,12,baseline,Johns_Hopkins_R1.json,2022-07-20_15h54.11.100,johns_hopkins,/js/tasks/horizon/game_type_v3.xls,/js/tasks/horizon/media/johns_hopkins_instruct_slide_R1.csv,Horizon Task,3.2.5,MacIntel,60,0,horizon,Johns_Hopkins_R1.json,left,10984,2.4840000000000373,,,,,,28,h6,7,HL,43,28,,X,0,217,217,217,1,40,28
,,,,,,,12,baseline,Johns_Hopkins_R1.json,2022-07-20_15h54.11.100,johns_hopkins,/js/tasks/horizon/game_type_v3.xls,/js/tasks/horizon/media/johns_hopkins_instruct_slide_R1.csv,Horizon Task,3.2.5,MacIntel,60,0,horizon,Johns_Hopkins_R1.json,left,11027,0.44110000000057425,,,,,,28,h6,8,HL,43,29,,X,0,218,218,218,1,40,28
,,,,,,,12,baseline,Johns_Hopkins_R1.json,2022-07-20_15h54.11.100,johns_hopkins,/js/tasks/horizon/game_type_v3.xls,/js/tasks/horizon/media/johns_hopkins_instruct_slide_R1.csv,Horizon Task,3.2.5,MacIntel,60,0,horizon,Johns_Hopkins_R1.json,left,11072,0.20209999999963202,,,,,,28,h6,9,HL,45,35,,X,0,219,219,219,1,40,28
,,,,,,,12,baseline,Johns_Hopkins_R1.json,2022-07-20_15h54.11.100,johns_hopkins,/js/tasks/horizon/game_type_v3.xls,/js/tasks/horizon/media/johns_hopkins_instruct_slide_R1.csv,Horizon Task,3.2.5,MacIntel,60,0,horizon,Johns_Hopkins_R1.json,left,11094,0.6191000000005715,,,,,,29,h6,0,LH,22,58,,L,0,220,220,220,1,40,52
,,,,,,,12,baseline,Johns_Hopkins_R1.json,2022-07-20_15h54.11.100,johns_hopkins,/js/tasks/horizon/game_type_v3.xls,/js/tasks/horizon/media/johns_hopkins_instruct_slide_R1.csv,Horizon Task,3.2.5,MacIntel,60,0,horizon,Johns_Hopkins_R1.json,right,11145,0.5644000000003189,,,,,,29,h6,1,LH,32,51,,R,0,221,221,221,1,40,52
,,,,,,,12,baseline,Johns_Hopkins_R1.json,2022-07-20_15h54.11.100,johns_hopkins,/js/tasks/horizon/game_type_v3.xls,/js/tasks/horizon/media/johns_hopkins_instruct_slide_R1.csv,Horizon Task,3.2.5,MacIntel,60,0,horizon,Johns_Hopkins_R1.json,left,11207,0.36879999999973734,,,,,,29,h6,2,LH,62,53,,L,0,222,222,222,1,40,52
,,,,,,,12,baseline,Johns_Hopkins_R1.json,2022-07-20_15h54.11.100,johns_hopkins,/js/tasks/horizon/game_type_v3.xls,/js/tasks/horizon/media/johns_hopkins_instruct_slide_R1.csv,Horizon Task,3.2.5,MacIntel,60,0,horizon,Johns_Hopkins_R1.json,right,11261,0.25559999999961747,,,,,,29,h6,3,LH,52,54,,R,0,223,223,223,1,40,52
,,,,,,,12,baseline,Johns_Hopkins_R1.json,2022-07-20_15h54.11.100,johns_hopkins,/js/tasks/horizon/game_type_v3.xls,/js/tasks/horizon/media/johns_hopkins_instruct_slide_R1.csv,Horizon Task,3.2.5,MacIntel,60,0,horizon,Johns_Hopkins_R1.json,left,11298,11.534399999999437,,,,,,29,h6,4,LH,37,56,,X,0,224,224,224,1,40,52
,,,,,,,12,baseline,Johns_Hopkins_R1.json,2022-07-20_15h54.11.100,johns_hopkins,/js/tasks/horizon/game_type_v3.xls,/js/tasks/horizon/media/johns_hopkins_instruct_slide_R1.csv,Horizon Task,3.2.5,MacIntel,60,0,horizon,Johns_Hopkins_R1.json,right,11341,1.4052000000002636,,,,,,29,h6,5,LH,45,43,,X,0,225,225,225,1,40,52
,,,,,,,12,baseline,Johns_Hopkins_R1.json,2022-07-20_15h54.11.100,johns_hopkins,/js/tasks/horizon/game_type_v3.xls,/js/tasks/horizon/media/johns_hopkins_instruct_slide_R1.csv,Horizon Task,3.2.5,MacIntel,60,0,horizon,Johns_Hopkins_R1.json,left,11396,1.605099999999652,,,,,,29,h6,6,LH,55,51,,X,0,226,226,226,1,40,52
,,,,,,,12,baseline,Johns_Hopkins_R1.json,2022-07-20_15h54.11.100,johns_hopkins,/js/tasks/horizon/game_type_v3.xls,/js/tasks/horizon/media/johns_hopkins_instruct_slide_R1.csv,Horizon Task,3.2.5,MacIntel,60,0,horizon,Johns_Hopkins_R1.json,left,11441,2.680200000000127,,,,,,29,h6,7,LH,45,42,,X,0,227,227,227,1,40,52
,,,,,,,12,baseline,Johns_Hopkins_R1.json,2022-07-20_15h54.11.100,johns_hopkins,/js/tasks/horizon/game_type_v3.xls,/js/tasks/horizon/media/johns_hopkins_instruct_slide_R1.csv,Horizon Task,3.2.5,MacIntel,60,0,horizon,Johns_Hopkins_R1.json,right,11480,1.7365000000000919,,,,,,29,h6,8,LH,49,39,,X,0,228,228,228,1,40,52
,,,,,,,12,baseline,Johns_Hopkins_R1.json,2022-07-20_15h54.11.100,johns_hopkins,/js/tasks/horizon/game_type_v3.xls,/js/tasks/horizon/media/johns_hopkins_instruct_slide_R1.csv,Horizon Task,3.2.5,MacIntel,60,0,horizon,Johns_Hopkins_R1.json,left,11514,0.367799999999761,,,,,,29,h6,9,LH,34,68,,X,0,229,229,229,1,40,52
,,,,,,,12,baseline,Johns_Hopkins_R1.json,2022-07-20_15h54.11.100,johns_hopkins,/js/tasks/horizon/game_type_v3.xls,/js/tasks/horizon/media/johns_hopkins_instruct_slide_R1.csv,Horizon Task,3.2.5,MacIntel,60,0,horizon,Johns_Hopkins_R1.json,right,11589,0.6887999999997874,,,,,,30,h1,0,LH,43,75,,R,0,230,230,230,1,40,70
,,,,,,,12,baseline,Johns_Hopkins_R1.json,2022-07-20_15h54.11.100,johns_hopkins,/js/tasks/horizon/game_type_v3.xls,/js/tasks/horizon/media/johns_hopkins_instruct_slide_R1.csv,Horizon Task,3.2.5,MacIntel,60,0,horizon,Johns_Hopkins_R1.json,right,11669,0.3567000000001599,,,,,,30,h1,1,LH,30,80,,R,0,231,231,231,1,40,70
,,,,,,,12,baseline,Johns_Hopkins_R1.json,2022-07-20_15h54.11.100,johns_hopkins,/js/tasks/horizon/game_type_v3.xls,/js/tasks/horizon/media/johns_hopkins_instruct_slide_R1.csv,Horizon Task,3.2.5,MacIntel,60,0,horizon,Johns_Hopkins_R1.json,right,11739,0.8527000000001408,,,,,,30,h1,2,LH,40,70,,R,0,232,232,232,1,40,70
,,,,,,,12,baseline,Johns_Hopkins_R1.json,2022-07-20_15h54.11.100,johns_hopkins,/js/tasks/horizon/game_type_v3.xls,/js/tasks/horizon/media/johns_hopkins_instruct_slide_R1.csv,Horizon Task,3.2.5,MacIntel,60,0,horizon,Johns_Hopkins_R1.json,left,11761,0.43860000000063337,,,,,,30,h1,3,LH,22,65,,L,0,233,233,233,1,40,70
,,,,,,,12,baseline,Johns_Hopkins_R1.json,2022-07-20_15h54.11.100,johns_hopkins,/js/tasks/horizon/game_type_v3.xls,/js/tasks/horizon/media/johns_hopkins_instruct_slide_R1.csv,Horizon Task,3.2.5,MacIntel,60,0,horizon,Johns_Hopkins_R1.json,right,11839,0.24790000000041346,,,,,,30,h1,4,LH,40,78,,X,0,234,234,234,1,40,70
,,,,,,,12,baseline,Johns_Hopkins_R1.json,2022-07-20_15h54.11.100,johns_hopkins,/js/tasks/horizon/game_type_v3.xls,/js/tasks/horizon/media/johns_hopkins_instruct_slide_R1.csv,Horizon Task,3.2.5,MacIntel,60,0,horizon,Johns_Hopkins_R1.json,right,11905,0.33410000000060336,,,,,,31,h1,0,HL,60,66,,R,0,235,235,235,1,68,60
,,,,,,,12,baseline,Johns_Hopkins_R1.json,2022-07-20_15h54.11.100,johns_hopkins,/js/tasks/horizon/game_type_v3.xls,/js/tasks/horizon/media/johns_hopkins_instruct_slide_R1.csv,Horizon Task,3.2.5,MacIntel,60,0,horizon,Johns_Hopkins_R1.json,left,11967,0.25470000000018445,,,,,,31,h1,1,HL,62,54,,L,0,236,236,236,1,68,60
,,,,,,,12,baseline,Johns_Hopkins_R1.json,2022-07-20_15h54.11.100,johns_hopkins,/js/tasks/horizon/game_type_v3.xls,/js/tasks/horizon/media/johns_hopkins_instruct_slide_R1.csv,Horizon Task,3.2.5,MacIntel,60,0,horizon,Johns_Hopkins_R1.json,left,12043,0.2851000000005115,,,,,,31,h1,2,HL,76,51,,L,0,237,237,237,1,68,60
,,,,,,,12,baseline,Johns_Hopkins_R1.json,2022-07-20_15h54.11.100,johns_hopkins,/js/tasks/horizon/game_type_v3.xls,/js/tasks/horizon/media/johns_hopkins_instruct_slide_R1.csv,Horizon Task,3.2.5,MacIntel,60,0,horizon,Johns_Hopkins_R1.json,right,12103,0.3011000000004742,,,,,,31,h1,3,HL,57,60,,R,0,238,238,238,1,68,60
,,,,,,,12,baseline,Johns_Hopkins_R1.json,2022-07-20_15h54.11.100,johns_hopkins,/js/tasks/horizon/game_type_v3.xls,/js/tasks/horizon/media/johns_hopkins_instruct_slide_R1.csv,Horizon Task,3.2.5,MacIntel,60,0,horizon,Johns_Hopkins_R1.json,left,12167,3.0714000000003807,,,,,,31,h1,4,HL,64,44,,X,0,239,239,239,1,68,60
,,,,,,,12,baseline,Johns_Hopkins_R1.json,2022-07-20_15h54.11.100,johns_hopkins,/js/tasks/horizon/game_type_v3.xls,/js/tasks/horizon/media/johns_hopkins_instruct_slide_R1.csv,Horizon Task,3.2.5,MacIntel,60,0,horizon,Johns_Hopkins_R1.json,right,12174,0.41590000000030614,,,,,,32,h1,0,HL,30,7,,R,0,240,240,240,1,40,10
,,,,,,,12,baseline,Johns_Hopkins_R1.json,2022-07-20_15h54.11.100,johns_hopkins,/js/tasks/horizon/game_type_v3.xls,/js/tasks/horizon/media/johns_hopkins_instruct_slide_R1.csv,Horizon Task,3.2.5,MacIntel,60,0,horizon,Johns_Hopkins_R1.json,left,12213,0.21680000000071686,,,,,,32,h1,1,HL,39,11,,L,0,241,241,241,1,40,10
,,,,,,,12,baseline,Johns_Hopkins_R1.json,2022-07-20_15h54.11.100,johns_hopkins,/js/tasks/horizon/game_type_v3.xls,/js/tasks/horizon/media/johns_hopkins_instruct_slide_R1.csv,Horizon Task,3.2.5,MacIntel,60,0,horizon,Johns_Hopkins_R1.json,right,12214,0.47329999999988104,,,,,,32,h1,2,HL,45,1,,R,0,242,242,242,1,40,10
,,,,,,,12,baseline,Johns_Hopkins_R1.json,2022-07-20_15h54.11.100,johns_hopkins,/js/tasks/horizon/game_type_v3.xls,/js/tasks/horizon/media/johns_hopkins_instruct_slide_R1.csv,Horizon Task,3.2.5,MacIntel,60,0,horizon,Johns_Hopkins_R1.json,left,12260,0.4295999999997093,,,,,,32,h1,3,HL,46,17,,L,0,243,243,243,1,40,10
,,,,,,,12,baseline,Johns_Hopkins_R1.json,2022-07-20_15h54.11.100,johns_hopkins,/js/tasks/horizon/game_type_v3.xls,/js/tasks/horizon/media/johns_hopkins_instruct_slide_R1.csv,Horizon Task,3.2.5,MacIntel,60,0,horizon,Johns_Hopkins_R1.json,left,12294,0.444899999999393,,,,,,32,h1,4,HL,34,9,,X,0,244,244,244,1,40,10
,,,,,,,12,baseline,Johns_Hopkins_R1.json,2022-07-20_15h54.11.100,johns_hopkins,/js/tasks/horizon/game_type_v3.xls,/js/tasks/horizon/media/johns_hopkins_instruct_slide_R1.csv,Horizon Task,3.2.5,MacIntel,60,0,horizon,Johns_Hopkins_R1.json,left,12343,1.138299999999731,,,,,,33,h6,0,HL,49,41,,L,0,245,245,245,1,60,40
,,,,,,,12,baseline,Johns_Hopkins_R1.json,2022-07-20_15h54.11.100,johns_hopkins,/js/tasks/horizon/game_type_v3.xls,/js/tasks/horizon/media/johns_hopkins_instruct_slide_R1.csv,Horizon Task,3.2.5,MacIntel,60,0,horizon,Johns_Hopkins_R1.json,right,12386,0.409200000000169,,,,,,33,h6,1,HL,68,43,,R,0,246,246,246,1,60,40
,,,,,,,12,baseline,Johns_Hopkins_R1.json,2022-07-20_15h54.11.100,johns_hopkins,/js/tasks/horizon/game_type_v3.xls,/js/tasks/horizon/media/johns_hopkins_instruct_slide_R1.csv,Horizon Task,3.2.5,MacIntel,60,0,horizon,Johns_Hopkins_R1.json,left,12453,0.3721000000005006,,,,,,33,h6,2,HL,67,40,,L,0,247,247,247,1,60,40
,,,,,,,12,baseline,Johns_Hopkins_R1.json,2022-07-20_15h54.11.100,johns_hopkins,/js/tasks/horizon/game_type_v3.xls,/js/tasks/horizon/media/johns_hopkins_instruct_slide_R1.csv,Horizon Task,3.2.5,MacIntel,60,0,horizon,Johns_Hopkins_R1.json,right,12489,0.27900000000011005,,,,,,33,h6,3,HL,55,36,,R,0,248,248,248,1,60,40
,,,,,,,12,baseline,Johns_Hopkins_R1.json,2022-07-20_15h54.11.100,johns_hopkins,/js/tasks/horizon/game_type_v3.xls,/js/tasks/horizon/media/johns_hopkins_instruct_slide_R1.csv,Horizon Task,3.2.5,MacIntel,60,0,horizon,Johns_Hopkins_R1.json,left,12548,2.3142000000001417,,,,,,33,h6,4,HL,59,49,,X,0,249,249,249,1,60,40
,,,,,,,12,baseline,Johns_Hopkins_R1.json,2022-07-20_15h54.11.100,johns_hopkins,/js/tasks/horizon/game_type_v3.xls,/js/tasks/horizon/media/johns_hopkins_instruct_slide_R1.csv,Horizon Task,3.2.5,MacIntel,60,0,horizon,Johns_Hopkins_R1.json,left,12608,1.5175999999996748,,,,,,33,h6,5,HL,60,28,,X,0,250,250,250,1,60,40
,,,,,,,12,baseline,Johns_Hopkins_R1.json,2022-07-20_15h54.11.100,johns_hopkins,/js/tasks/horizon/game_type_v3.xls,/js/tasks/horizon/media/johns_hopkins_instruct_slide_R1.csv,Horizon Task,3.2.5,MacIntel,60,0,horizon,Johns_Hopkins_R1.json,left,12658,1.2337000000002263,,,,,,33,h6,6,HL,50,48,,X,0,251,251,251,1,60,40
,,,,,,,12,baseline,Johns_Hopkins_R1.json,2022-07-20_15h54.11.100,johns_hopkins,/js/tasks/horizon/game_type_v3.xls,/js/tasks/horizon/media/johns_hopkins_instruct_slide_R1.csv,Horizon Task,3.2.5,MacIntel,60,0,horizon,Johns_Hopkins_R1.json,left,12722,0.2864999999999327,,,,,,33,h6,7,HL,64,50,,X,0,252,252,252,1,60,40
,,,,,,,12,baseline,Johns_Hopkins_R1.json,2022-07-20_15h54.11.100,johns_hopkins,/js/tasks/horizon/game_type_v3.xls,/js/tasks/horizon/media/johns_hopkins_instruct_slide_R1.csv,Horizon Task,3.2.5,MacIntel,60,0,horizon,Johns_Hopkins_R1.json,left,12779,0.2045999999996866,,,,,,33,h6,8,HL,57,31,,X,0,253,253,253,1,60,40
,,,,,,,12,baseline,Johns_Hopkins_R1.json,2022-07-20_15h54.11.100,johns_hopkins,/js/tasks/horizon/game_type_v3.xls,/js/tasks/horizon/media/johns_hopkins_instruct_slide_R1.csv,Horizon Task,3.2.5,MacIntel,60,0,horizon,Johns_Hopkins_R1.json,left,12833,0.23920000000009622,,,,,,33,h6,9,HL,54,45,,X,0,254,254,254,1,60,40
,,,,,,,12,baseline,Johns_Hopkins_R1.json,2022-07-20_15h54.11.100,johns_hopkins,/js/tasks/horizon/game_type_v3.xls,/js/tasks/horizon/media/johns_hopkins_instruct_slide_R1.csv,Horizon Task,3.2.5,MacIntel,60,0,horizon,Johns_Hopkins_R1.json,left,12895,0.7363000000007105,,,,,,34,h6,0,LH,62,77,,L,0,255,255,255,1,60,80
,,,,,,,12,baseline,Johns_Hopkins_R1.json,2022-07-20_15h54.11.100,johns_hopkins,/js/tasks/horizon/game_type_v3.xls,/js/tasks/horizon/media/johns_hopkins_instruct_slide_R1.csv,Horizon Task,3.2.5,MacIntel,60,0,horizon,Johns_Hopkins_R1.json,left,12955,1.169799999999782,,,,,,34,h6,1,LH,60,67,,L,0,256,256,256,1,60,80
,,,,,,,12,baseline,Johns_Hopkins_R1.json,2022-07-20_15h54.11.100,johns_hopkins,/js/tasks/horizon/game_type_v3.xls,/js/tasks/horizon/media/johns_hopkins_instruct_slide_R1.csv,Horizon Task,3.2.5,MacIntel,60,0,horizon,Johns_Hopkins_R1.json,left,13013,0.4530000000000882,,,,,,34,h6,2,LH,58,68,,L,0,257,257,257,1,60,80
,,,,,,,12,baseline,Johns_Hopkins_R1.json,2022-07-20_15h54.11.100,johns_hopkins,/js/tasks/horizon/game_type_v3.xls,/js/tasks/horizon/media/johns_hopkins_instruct_slide_R1.csv,Horizon Task,3.2.5,MacIntel,60,0,horizon,Johns_Hopkins_R1.json,right,13091,0.8841000000005579,,,,,,34,h6,3,LH,57,78,,R,0,258,258,258,1,60,80
,,,,,,,12,baseline,Johns_Hopkins_R1.json,2022-07-20_15h54.11.100,johns_hopkins,/js/tasks/horizon/game_type_v3.xls,/js/tasks/horizon/media/johns_hopkins_instruct_slide_R1.csv,Horizon Task,3.2.5,MacIntel,60,0,horizon,Johns_Hopkins_R1.json,right,13181,2.63470000000018,,,,,,34,h6,4,LH,66,90,,X,0,259,259,259,1,60,80
,,,,,,,12,baseline,Johns_Hopkins_R1.json,2022-07-20_15h54.11.100,johns_hopkins,/js/tasks/horizon/game_type_v3.xls,/js/tasks/horizon/media/johns_hopkins_instruct_slide_R1.csv,Horizon Task,3.2.5,MacIntel,60,0,horizon,Johns_Hopkins_R1.json,right,13256,0.4635000000000673,,,,,,34,h6,5,LH,81,75,,X,0,260,260,260,1,60,80
,,,,,,,12,baseline,Johns_Hopkins_R1.json,2022-07-20_15h54.11.100,johns_hopkins,/js/tasks/horizon/game_type_v3.xls,/js/tasks/horizon/media/johns_hopkins_instruct_slide_R1.csv,Horizon Task,3.2.5,MacIntel,60,0,horizon,Johns_Hopkins_R1.json,right,13340,0.27960000000052787,,,,,,34,h6,6,LH,67,84,,X,0,261,261,261,1,60,80
,,,,,,,12,baseline,Johns_Hopkins_R1.json,2022-07-20_15h54.11.100,johns_hopkins,/js/tasks/horizon/game_type_v3.xls,/js/tasks/horizon/media/johns_hopkins_instruct_slide_R1.csv,Horizon Task,3.2.5,MacIntel,60,0,horizon,Johns_Hopkins_R1.json,right,13408,0.2839999999999918,,,,,,34,h6,7,LH,53,68,,X,0,262,262,262,1,60,80
,,,,,,,12,baseline,Johns_Hopkins_R1.json,2022-07-20_15h54.11.100,johns_hopkins,/js/tasks/horizon/game_type_v3.xls,/js/tasks/horizon/media/johns_hopkins_instruct_slide_R1.csv,Horizon Task,3.2.5,MacIntel,60,0,horizon,Johns_Hopkins_R1.json,right,13496,0.18740000000036616,,,,,,34,h6,8,LH,72,88,,X,0,263,263,263,1,60,80
,,,,,,,12,baseline,Johns_Hopkins_R1.json,2022-07-20_15h54.11.100,johns_hopkins,/js/tasks/horizon/game_type_v3.xls,/js/tasks/horizon/media/johns_hopkins_instruct_slide_R1.csv,Horizon Task,3.2.5,MacIntel,60,0,horizon,Johns_Hopkins_R1.json,right,13559,0.23500000000001364,,,,,,34,h6,9,LH,58,63,,X,0,264,264,264,1,60,80
,,,,,,,12,baseline,Johns_Hopkins_R1.json,2022-07-20_15h54.11.100,johns_hopkins,/js/tasks/horizon/game_type_v3.xls,/js/tasks/horizon/media/johns_hopkins_instruct_slide_R1.csv,Horizon Task,3.2.5,MacIntel,60,0,horizon,Johns_Hopkins_R1.json,right,13607,0.4840000000000373,,,,,,35,h6,0,LH,27,48,,R,0,265,265,265,1,30,60
